"Time (s)"	"Linear Acceleration x (m/s^2)"	"Linear Acceleration y (m/s^2)"	"Linear Acceleration z (m/s^2)"	"Absolute acceleration (m/s^2)"
1.072350002e-2	2.826931424e-2	-7.950778892e-3	-1.221424878e-2	3.180498209e-2
2.065650001e-2	4.000216815e-2	-1.074280609e-2	-2.134584546e-2	4.659642109e-2
3.058950001e-2	2.169509554e-2	-1.001181734e-2	-1.071853101e-2	2.618779418e-2
4.052250000e-2	3.622325657e-2	-1.365132993e-2	-3.167612135e-2	5.001859444e-2
5.045550002e-2	3.907959173e-2	-2.386344182e-2	-2.718545973e-2	5.325154989e-2
6.038850002e-2	3.541255611e-2	7.340567121e-3	-3.182581007e-2	4.817484035e-2
7.032050000e-2	2.285637084e-2	1.521003774e-2	-2.314444900e-2	3.590855685e-2
8.025350003e-2	2.472335254e-2	2.874363307e-4	-3.377293289e-2	4.185615577e-2
9.018650002e-2	1.898897901e-2	-1.170953813e-2	-3.661818802e-2	4.287873950e-2
1.001195000e-1	2.560794947e-2	-9.284519646e-3	-2.509157181e-2	3.703452925e-2
1.100525000e-1	2.907746112e-2	1.933464082e-3	-2.943254471e-2	4.141873630e-2
1.199855000e-1	3.850919584e-2	1.633977005e-3	-1.311647415e-2	4.071449299e-2
1.299185000e-1	3.141089531e-2	-1.313280524e-2	-2.164990067e-2	4.034641393e-2
1.398515000e-1	4.196169346e-2	-1.361139984e-2	-1.027472734e-2	4.529485562e-2
1.497845000e-1	3.134841004e-2	-6.809676485e-4	-1.581321001e-2	3.511757594e-2
1.597165000e-1	2.193571303e-2	-2.631338406e-3	-1.147223711e-2	2.489400876e-2
1.696495000e-1	2.591334772e-2	-4.161970443e-3	8.136985302e-3	2.747788416e-2
1.795825000e-1	1.963632060e-2	4.393552160e-3	1.401577592e-3	2.017059263e-2
1.895155000e-1	2.835899591e-5	1.094295903e-2	-1.820764482e-2	2.124305737e-2
1.994485000e-1	2.667885788e-2	9.409586107e-4	-1.132430255e-2	2.899804630e-2
2.093815000e-1	3.389699893e-2	-5.107606826e-3	-9.678311348e-3	3.561971216e-2
2.193145000e-1	3.378605258e-2	6.566902832e-3	-1.595120430e-3	3.445527493e-2
2.292475000e-1	2.631125303e-2	-8.011178803e-3	-1.237329304e-2	3.015890254e-2
2.391795000e-1	3.367984110e-2	-1.777823535e-2	-2.060617268e-2	4.330140531e-2
2.491125000e-1	2.025463396e-2	-5.721212723e-3	-1.327142537e-2	2.488198552e-2
2.590455000e-1	2.311335597e-2	-4.909441033e-3	-2.240243733e-2	3.256069768e-2
2.689785000e-1	2.292688232e-2	9.053796739e-3	-2.045589924e-2	3.203212422e-2
2.789115000e-1	1.865424419e-2	4.100154410e-3	-1.012737751e-2	2.161841501e-2
2.888445000e-1	4.539547085e-2	2.356368522e-3	-1.057702839e-2	4.667092002e-2
2.987775000e-1	2.183276778e-2	5.165891689e-3	-2.524652302e-2	3.377488876e-2
3.087105000e-1	1.912610764e-2	4.517088295e-3	-1.671426594e-2	2.579881327e-2
3.186425000e-1	2.900951464e-2	1.098843940e-2	-2.210364461e-2	3.809027232e-2
3.285755833e-1	3.808281505e-2	1.219130759e-3	-3.243216634e-2	5.003631176e-2
3.385085833e-1	6.317007453e-3	-1.291654506e-3	-2.345084310e-2	2.432108132e-2
3.484415833e-1	8.588424611e-3	-1.270866284e-2	-1.357197225e-2	2.048095650e-2
3.583745833e-1	1.795617343e-2	-6.710182456e-3	-1.387193441e-2	2.366181053e-2
3.683075834e-1	3.371355167e-2	-4.731484680e-3	-1.372283041e-2	3.670567515e-2
3.782405833e-1	1.107002176e-2	-1.348257837e-2	-2.015886068e-2	2.665905035e-2
3.881735833e-1	2.548921902e-2	-2.169321575e-3	-1.746563315e-2	3.097506390e-2
3.981055834e-1	2.894165953e-2	1.355634009e-2	-1.192715049e-2	3.411232815e-2
4.080385834e-1	2.421413543e-2	1.002525680e-2	-5.489950776e-3	2.677628966e-2
4.179715833e-1	2.561190548e-2	1.037737339e-2	4.794716835e-5	2.763443286e-2
4.279045833e-1	1.509096696e-2	-1.336678066e-3	-9.083649516e-3	1.766456001e-2
4.378375833e-1	2.862042584e-2	9.109528014e-3	-1.791586876e-2	3.497271264e-2
4.477705834e-1	1.964035884e-2	1.081019525e-2	4.238061905e-3	2.281589764e-2
4.577035833e-1	2.461261176e-2	-4.356997926e-4	-2.794559777e-2	3.724146783e-2
4.676365833e-1	2.648188437e-2	7.647513966e-3	-2.869521081e-2	3.978931758e-2
4.775685834e-1	5.119646152e-3	3.104647673e-3	-1.900929809e-3	6.281970076e-3
4.875015834e-1	3.315431346e-2	-1.124697313e-2	-1.282820642e-2	3.728626805e-2
4.974345833e-1	2.296480472e-2	-1.014091290e-2	-1.597108483e-2	2.975392278e-2
5.073675833e-1	2.979751603e-2	5.404700199e-4	-9.983536005e-3	3.143016164e-2
5.173005833e-1	2.840289571e-2	1.072161907e-2	-1.207859337e-2	3.267369000e-2
5.272335834e-1	1.177033776e-2	-4.557187404e-3	-2.884373009e-2	3.148443383e-2
5.371665834e-1	1.193166609e-2	1.221775711e-2	-2.480271935e-2	3.011333810e-2
5.470995833e-1	2.814407876e-2	8.855525879e-3	-1.956419885e-2	3.540151670e-2
5.570325833e-1	3.052649937e-2	-3.205283736e-3	-8.487818241e-3	3.184625671e-2
5.669645834e-1	2.963311791e-2	4.068213995e-3	-2.345785975e-2	3.801240885e-2
5.768975833e-1	1.962951636e-2	-6.175929671e-3	-1.627221644e-2	2.623442486e-2
5.868305833e-1	2.215817675e-2	-2.939367900e-4	-1.881750941e-2	2.907180517e-2
5.967635833e-1	2.071982108e-2	-6.754063983e-3	-2.151190639e-2	3.062173219e-2
6.066965834e-1	2.681764703e-2	-4.734390015e-3	-1.971622646e-2	3.362038409e-2
6.166295834e-1	3.560986081e-2	-1.154043026e-2	-2.255914271e-2	4.370536165e-2
6.265625833e-1	1.970520354e-2	-3.810009174e-4	-2.734976649e-2	3.371127312e-2
6.364955833e-1	3.254917689e-2	5.232906262e-3	-1.851871669e-2	3.781236692e-2
6.464275834e-1	3.614213787e-2	-3.533568350e-3	-3.184042811e-2	4.829651227e-2
6.563605834e-1	2.572929975e-2	-6.363141071e-3	-1.058462977e-2	2.853981110e-2
6.662935833e-1	1.960855546e-2	-4.704468716e-3	-9.537393451e-3	2.230671081e-2
6.762265833e-1	2.860686989e-2	3.320350545e-4	-1.642307460e-2	3.298758299e-2
6.861595833e-1	2.978358550e-2	1.143025593e-3	-1.702241421e-2	3.432391379e-2
6.960925834e-1	1.699750416e-2	-5.782818622e-3	-2.203230858e-3	1.808895699e-2
7.060255833e-1	1.300176823e-2	9.517398714e-3	-9.537978172e-3	1.872431261e-2
7.159585833e-1	2.912295520e-2	1.162622445e-2	-1.013731778e-2	3.295574041e-2
7.258905834e-1	3.817414810e-2	-6.415099064e-3	-1.223295987e-2	4.059635927e-2
7.358235834e-1	1.219294298e-2	1.719844281e-3	4.232214689e-3	1.302065145e-2
7.457565833e-1	1.224011585e-2	5.181240630e-3	-4.149184227e-3	1.392413086e-2
7.556895833e-1	1.574626853e-2	9.637723449e-3	-2.181245327e-2	2.857645540e-2
7.656225833e-1	7.774556146e-3	-1.447533052e-3	-2.300996304e-2	2.433099821e-2
7.755555834e-1	1.427439416e-2	-3.801398235e-3	-1.223295987e-2	1.917952721e-2
7.854885834e-1	2.335251166e-2	1.594995720e-2	-2.750062466e-2	3.944648643e-2
7.954215833e-1	2.807021198e-2	-3.263650825e-3	-1.073548794e-2	3.022976875e-2
8.053535833e-1	1.844512172e-2	8.551552892e-6	-1.387895107e-2	2.308349781e-2
8.152865834e-1	4.360092382e-2	3.297053045e-4	-1.357957363e-2	4.566786708e-2
8.252195833e-1	3.673984437e-2	-8.979358943e-3	-1.088517666e-2	3.935647497e-2
8.351525833e-1	2.063456365e-2	3.863090929e-3	-1.612428188e-2	2.647076038e-2
8.450855833e-1	1.798566761e-2	1.621524263e-3	-1.762233853e-2	2.523213023e-2
8.550185834e-1	2.105494191e-2	-7.784841307e-3	-2.091549039e-2	3.068178729e-2
8.649515834e-1	2.875427454e-2	6.677817204e-3	-1.522673428e-2	3.321528239e-2
8.748845833e-1	2.479117796e-2	1.423312789e-3	-1.328078091e-2	2.816038823e-2
8.848175833e-1	3.091684441e-2	-1.804717986e-2	-1.956712246e-2	4.079735593e-2
8.947495834e-1	1.610509342e-2	5.292488476e-3	-3.558381557e-2	3.941563648e-2
9.046825834e-1	1.112364256e-3	-7.847187244e-3	-8.041090965e-3	1.129047589e-2
9.146155833e-1	9.106056229e-3	-1.739043705e-2	-2.300996304e-2	3.024575937e-2
9.245485833e-1	1.575563549e-2	3.237155629e-3	-9.539147615e-3	1.870065677e-2
9.344815833e-1	2.377573130e-2	-8.531850516e-3	-2.061728239e-2	3.260598419e-2
9.444145834e-1	2.018208738e-2	-4.219478723e-3	-3.199479461e-2	3.806294174e-2
9.543475833e-1	3.151657003e-2	-3.067796510e-3	-1.328370452e-2	3.433893370e-2
9.642805833e-1	2.243858043e-2	1.094671860e-3	-2.346253753e-2	3.248351683e-2
9.742125834e-1	2.172150851e-2	4.636490266e-3	-1.388187468e-2	2.619212513e-2
9.841455834e-1	2.863358436e-2	1.627448224e-2	-2.495825529e-2	4.132378773e-2
9.940785833e-1	1.809276987e-2	3.518347316e-3	-1.567755461e-2	2.419737192e-2
1.004011583e0	3.199637975e-2	1.261663314e-2	-3.184393644e-2	4.687199630e-2
1.013944583e0	1.013086300e-2	-1.109961872e-2	-1.178623259e-2	1.909846066e-2
1.023877583e0	2.670503331e-3	-1.694504367e-2	-5.199344158e-3	1.792482281e-2
1.033810583e0	1.494823551e-2	-7.636760571e-3	-1.597751677e-2	2.317435865e-2
1.043743583e0	2.504668072e-2	1.160421973e-2	-2.989973724e-2	4.069383759e-2
1.053675583e0	1.158751405e-2	5.554891415e-3	1.984544992e-3	1.300252742e-2
1.063608583e0	1.521985923e-2	2.458557752e-3	-1.867308319e-2	2.421513281e-2
1.073541583e0	3.219615810e-2	-4.060343094e-3	-2.795378387e-2	4.283098195e-2
1.083474583e0	3.413316477e-2	-1.044324593e-2	-1.043961883e-2	3.719032084e-2
1.093407583e0	4.604504169e-3	6.166985258e-5	-1.133775115e-2	1.223723265e-2
1.103340583e0	8.135397874e-3	-5.397016592e-3	-1.927125335e-2	2.160309451e-2
1.113273583e0	2.275060704e-2	-1.515160670e-2	-1.268553436e-2	3.013443360e-2
1.123206583e0	3.265402934e-2	6.129919393e-3	-2.511028290e-2	4.164598241e-2
1.133138583e0	3.180973480e-2	-8.020972889e-3	-1.058989227e-2	3.447232299e-2
1.143071583e0	2.824643930e-2	-1.532407215e-2	-1.792463958e-2	3.679648386e-2
1.153004583e0	4.852887494e-3	3.898539674e-4	-1.373335540e-2	1.457077739e-2
1.162937583e0	2.502564445e-2	-3.019940704e-3	-1.523024261e-2	2.945103075e-2
1.172870583e0	2.086797948e-2	5.995588750e-3	-4.104745388e-4	2.171608025e-2
1.182803583e0	1.697643362e-2	9.134328431e-3	-2.301347136e-2	3.002091136e-2
1.192736583e0	8.287669877e-3	1.173403705e-3	-2.840285003e-2	2.961054269e-2
1.202669583e0	1.673220273e-2	2.395051508e-3	-3.663514495e-2	4.034645865e-2
1.212601583e0	2.302267159e-2	9.591790829e-3	-2.765440643e-2	3.723992553e-2
1.222534583e0	1.301237087e-2	5.434438772e-3	-2.181654632e-2	2.597723261e-2
1.232467583e0	2.203053614e-2	2.378048901e-3	-1.942211151e-2	2.946554012e-2
1.242400583e0	2.586323068e-2	-5.124376458e-3	-3.499090791e-2	4.381243627e-2
1.252333583e0	9.844125593e-3	-1.031765870e-2	-2.032199800e-2	2.482628632e-2
1.262266583e0	3.359984388e-2	-4.784557298e-3	-9.694098830e-3	3.529613364e-2
1.272199583e0	1.097366148e-2	1.101528634e-3	-9.394136667e-3	1.448738814e-2
1.282132583e0	2.092984119e-2	-2.837589802e-3	1.335854888e-2	2.499121839e-2
1.292064583e0	2.525563189e-2	-1.458565104e-3	-1.148919404e-2	2.778445490e-2
1.301997583e0	2.830645548e-2	-3.911202550e-3	3.367996216e-4	2.857737499e-2
1.311930583e0	3.169750252e-2	-3.366580093e-4	1.081501007e-2	3.349342394e-2
1.321863583e0	2.660662193e-2	8.828016557e-4	3.180885315e-3	2.681062664e-2
1.331796458e0	2.578972936e-2	5.953141619e-3	1.683413386e-3	2.652138601e-2
1.341729458e0	2.489286241e-2	8.461537748e-3	2.114294708e-2	3.373835252e-2
1.351662458e0	3.300381161e-2	8.196014771e-4	-8.618795872e-4	3.302523526e-2
1.361595458e0	1.653086665e-2	1.519412692e-3	-7.127755880e-4	1.661584233e-2
1.371527458e0	2.557993765e-2	1.505110768e-2	-4.903475046e-3	3.008177389e-2
1.381460458e0	1.233512854e-2	-8.898068941e-3	-3.050024629e-2	3.408219551e-2
1.391393458e0	4.948530584e-3	-1.125672153e-2	-2.615985811e-2	2.890570724e-2
1.401326458e0	4.361579767e-3	-1.492049550e-3	-3.080020845e-2	3.114325658e-2
1.411259458e0	2.297854567e-2	-2.788505168e-3	-2.361573458e-2	3.306799422e-2
1.421192458e0	1.085483966e-2	-1.088693082e-2	-3.319581270e-2	3.658298495e-2
1.431125458e0	1.437515127e-3	1.632558142e-2	-2.496293306e-2	2.986200070e-2
1.441058458e0	2.589574669e-2	9.329072689e-3	-4.023059785e-2	4.874548489e-2
1.450990458e0	2.150841176e-2	8.570049279e-3	-5.594732881e-2	6.054883254e-2
1.460923458e0	2.701691831e-2	-1.270513167e-3	-4.038028657e-2	4.860139527e-2
1.470856458e0	1.698126671e-2	1.974321501e-3	-3.214682221e-2	3.640988249e-2
1.480789458e0	1.424457564e-2	-1.090724076e-2	-3.394308686e-2	3.839282462e-2
1.490722458e0	9.098630722e-3	-1.574972204e-2	-2.601016939e-2	3.173905696e-2
1.500655458e0	2.632717527e-2	-1.223554543e-2	-1.283756196e-2	3.174321545e-2
1.510588458e0	1.951407497e-2	6.034098146e-4	6.344228983e-4	1.953370722e-2
1.520521458e0	3.533236246e-2	-2.447274453e-3	1.350706816e-2	3.790522233e-2
1.530453458e0	2.436551893e-2	6.371455081e-4	-6.850013137e-3	2.531811895e-2
1.540386458e0	1.097643434e-3	-5.250726566e-3	-1.461219192e-3	5.559686331e-3
1.550319458e0	2.074575897e-2	5.590609680e-3	-1.460634470e-3	2.153543324e-2
1.560252458e0	2.444203523e-2	-1.601387001e-2	1.365675688e-2	3.225467605e-2
1.570185458e0	2.321558174e-2	4.026625673e-3	1.680080473e-2	2.893862453e-2
1.580118458e0	4.149822853e-2	7.570481468e-3	1.036360502e-2	4.343753526e-2
1.590051458e0	2.793978481e-2	-8.231463516e-4	1.994368315e-2	3.433743792e-2
1.599984458e0	1.560963554e-2	5.729284622e-3	-2.958106399e-3	1.688892588e-2
1.609916458e0	6.936156785e-3	1.962330141e-3	-1.388538301e-2	1.564496315e-2
1.619849458e0	1.858080681e-2	-9.049799619e-4	4.676603079e-3	1.918165757e-2
1.629782458e0	1.961760494e-2	-8.820533948e-3	-1.343573213e-2	2.536081901e-2
1.639715458e0	1.150594083e-2	1.069597355e-3	-1.238908052e-2	1.694166547e-2
1.649648458e0	2.975668831e-2	-6.270298250e-3	-2.256791353e-2	3.786935252e-2
1.659581458e0	2.724825335e-2	-1.016569961e-2	-1.343807101e-2	3.203732997e-2
1.669514458e0	9.320683305e-3	-4.592732079e-3	-3.334725559e-2	3.492860977e-2
1.679447458e0	1.832975570e-2	-5.997799728e-3	-2.915538669e-2	3.495697525e-2
1.689379458e0	1.367894432e-2	-2.009820496e-3	-2.825783908e-2	3.145883605e-2
1.699312458e0	1.622766340e-2	3.047906840e-3	-2.616219699e-2	3.093682833e-2
1.709245458e0	1.880637686e-2	1.224048359e-2	-4.158013523e-2	4.724845918e-2
1.719178458e0	2.829034595e-2	9.840836534e-3	-4.068200290e-2	5.051941308e-2
1.729111458e0	1.885489162e-2	-1.196125163e-2	-3.035523534e-2	3.768313669e-2
1.739044458e0	5.954395572e-3	-3.879367202e-3	-4.262971044e-2	4.321801162e-2
1.748977458e0	1.752012875e-2	-1.385938117e-2	-2.541609228e-2	3.383807182e-2
1.758910458e0	1.283954910e-2	-4.538348406e-3	-2.317076147e-2	2.687628721e-2
1.768842458e0	1.827370008e-2	-7.960865339e-3	-2.856014013e-2	3.482793557e-2
1.778775458e0	1.514866482e-2	-1.117830032e-2	-2.840986669e-2	3.408162216e-2
1.788708458e0	7.972848705e-3	-6.947894613e-3	-8.052200675e-3	1.329200857e-2
1.798641458e0	1.673635860e-2	4.030650202e-3	-1.164531469e-2	2.078377238e-2
1.808574458e0	3.289102887e-2	1.378665186e-2	-6.106832027e-3	3.618266086e-2
1.818507458e0	5.134360122e-3	8.564343676e-3	2.425425053e-3	1.027581253e-2
1.828440458e0	1.016259785e-2	2.459160746e-3	6.466435790e-3	1.229392771e-2
1.838373458e0	2.431508441e-2	-2.180920076e-3	-4.461425543e-3	2.481701151e-2
1.848305458e0	2.932086289e-2	7.315784977e-3	-3.862085938e-3	3.046554477e-2
1.858238458e0	3.226111244e-2	-3.325489699e-3	6.166473627e-3	3.301308308e-2
1.868171458e0	2.927020910e-2	-1.451683205e-2	-6.108001471e-3	3.323840001e-2
1.878104458e0	2.552083510e-2	-5.217945613e-3	8.113011718e-3	2.728297893e-2
1.888037458e0	3.757030659e-2	6.207408705e-3	-1.104714453e-2	3.964970697e-2
1.897970458e0	1.302535238e-2	3.619851326e-3	-3.065695167e-2	3.350539977e-2
1.907903458e0	4.016089265e-3	2.063909525e-2	-1.598745704e-2	2.641401159e-2
1.917835458e0	6.460718766e-3	1.722457255e-2	-2.167562842e-2	2.842990774e-2
1.927768458e0	1.164974693e-2	-1.004213607e-2	-2.646566749e-2	3.061033577e-2
1.937701458e0	1.564042479e-2	2.722061612e-4	-2.541784644e-2	2.984566805e-2
1.947634458e0	5.120192044e-3	-3.310853387e-3	-3.035757422e-2	3.096385683e-2
1.957567458e0	6.672287474e-3	-4.160901499e-3	-2.975940406e-2	3.078075132e-2
1.967500458e0	5.004794046e-3	-8.324749446e-3	-2.257434547e-2	2.457540417e-2
1.977433458e0	5.709587956e-3	-3.766269260e-3	-3.619660378e-2	3.683718642e-2
1.987366458e0	1.481146548e-2	6.486585843e-3	-3.739411354e-2	4.074033668e-2
1.997298458e0	1.122721936e-2	-6.621880364e-4	-2.481909156e-2	2.724841745e-2
2.007231458e0	-3.691882855e-3	-1.349471135e-2	-3.859103858e-2	4.104881840e-2
2.017164458e0	-2.387140637e-3	2.128665154e-3	-3.649539649e-2	3.663527837e-2
2.027097458e0	2.508218885e-2	6.223063711e-3	-2.511963844e-2	3.603940836e-2
2.037030458e0	3.022019892e-2	1.553226043e-3	-2.886244118e-2	4.181762122e-2
2.046963458e0	1.561993898e-2	-8.482934902e-3	-1.299485207e-2	2.201837547e-2
2.056896458e0	2.798128862e-2	-8.418396260e-3	-1.239551246e-2	3.174067797e-2
2.066829458e0	1.766083423e-2	3.203821932e-3	7.962153554e-3	1.963582007e-2
2.076761458e0	4.245311539e-2	1.524455002e-2	3.171529770e-3	4.521860140e-2
2.086694458e0	3.706725419e-2	1.959493328e-3	-7.007887959e-3	3.777474607e-2
2.096627458e0	1.773232215e-2	4.879204533e-3	-1.075069070e-2	2.130303350e-2
2.106560458e0	1.288130531e-2	8.568464136e-3	-1.227915287e-4	1.547131804e-2
2.116493458e0	1.561930286e-2	-2.838740973e-3	-7.307850122e-3	1.747643401e-2
2.126426458e0	1.154395801e-2	2.492247764e-3	-4.614037871e-3	1.267925908e-2
2.136359458e0	1.348720590e-2	-5.759690143e-3	1.523199677e-3	1.474445288e-2
2.146292458e0	2.029172724e-2	5.459019919e-3	-2.518395782e-3	2.116358689e-2
2.156224458e0	1.479086318e-2	6.441804394e-4	-2.018108010e-2	2.502919488e-2
2.166157458e0	3.528536090e-2	-1.306575869e-2	-1.838481545e-2	4.187806327e-2
2.176090458e0	1.255897183e-2	6.703787064e-4	-7.009057403e-3	1.439805774e-2
2.186023458e0	1.405537824e-2	-7.576885996e-3	-2.512139261e-2	2.976654541e-2
2.195956458e0	2.617120079e-2	-6.279059937e-3	-1.344625711e-2	3.008587999e-2
2.205889458e0	2.424659890e-3	-2.620374877e-4	-2.182882547e-2	2.196463660e-2
2.215822458e0	1.986074862e-2	1.015028672e-2	-4.053991556e-2	4.627053501e-2
2.225754458e0	1.828050889e-2	-9.463197766e-3	-2.347481668e-2	3.122172538e-2
2.235687458e0	1.222789494e-2	7.194267958e-4	-2.781578958e-2	3.039337329e-2
2.245620458e0	3.550164392e-3	5.297586517e-3	-4.488030374e-2	4.533111243e-2
2.255553458e0	2.304676167e-2	1.099450132e-3	-4.053991556e-2	4.664597268e-2
2.265486458e0	2.320426418e-2	-2.607949544e-5	-5.206653178e-2	5.700317787e-2
2.275419458e0	1.174104800e-2	6.919750320e-3	-4.503174663e-2	4.704884012e-2
2.285352458e0	1.919674246e-2	-1.096494547e-3	-2.153061748e-2	2.886667127e-2
2.295285458e0	2.132802059e-2	-5.151040675e-3	-2.721937358e-2	3.496157863e-2
2.305217458e0	1.554687962e-2	-5.800748561e-3	-2.662120342e-2	3.136945363e-2
2.315150458e0	1.359291488e-2	-8.038477991e-3	-1.165350080e-2	1.962622083e-2
2.325083458e0	1.781352992e-2	-7.096039304e-3	-1.180435896e-2	2.251707158e-2
2.335016583e0	1.495727471e-2	1.306389946e-2	-3.156443954e-2	3.729208199e-2
2.344949583e0	2.397643012e-2	-8.313109833e-3	6.755872965e-3	2.626059436e-2
2.354882583e0	2.656610940e-2	-8.319719927e-4	-4.021714926e-3	2.688167661e-2
2.364815583e0	1.301432604e-2	-3.431954705e-3	-5.219809413e-3	1.443597609e-2
2.374747583e0	1.691766225e-3	-2.863806342e-3	-5.519186854e-3	6.443980389e-3
2.384680583e0	2.678681210e-2	5.447398578e-3	1.334100723e-2	3.041693489e-2
2.394613583e0	1.996735523e-2	-2.337684841e-3	9.747893214e-3	2.234236934e-2
2.404546583e0	2.709608870e-2	2.849064963e-3	-8.065064549e-3	2.841408911e-2
2.414479583e0	3.212527431e-2	-3.503665323e-3	7.353458405e-3	3.314185074e-2
2.424412583e0	1.387801917e-2	4.687840696e-3	6.006259918e-3	1.583194318e-2
2.434345583e0	2.787036968e-2	7.574072024e-3	-2.378238022e-2	3.741290797e-2
2.444278583e0	3.363000958e-2	-4.098733719e-3	-3.081833482e-2	4.579898387e-2
2.454210583e0	1.399890693e-2	-1.011838285e-2	-3.156794786e-2	3.598453000e-2
2.464143583e0	1.990596175e-2	-1.184140655e-2	-2.992137194e-2	3.783853487e-2
2.474076583e0	1.266035935e-2	-7.147060828e-3	-3.501078844e-2	3.790937199e-2
2.484009583e0	1.156924836e-2	-3.487896114e-3	-1.929405749e-2	2.276562279e-2
2.493942583e0	1.866952575e-2	6.525629712e-3	-4.519079089e-2	4.932892272e-2
2.503875583e0	1.567944467e-2	-2.127838321e-4	-2.468343616e-2	2.924315788e-2
2.513808583e0	1.557371057e-2	4.336285992e-3	-2.348592639e-2	2.851197249e-2
2.523740583e0	2.394985042e-2	-2.293721088e-3	-3.082067370e-2	3.909949385e-2
2.533673583e0	2.629433493e-2	-7.583349911e-3	-2.797658801e-2	3.913551740e-2
2.543606583e0	-1.044237684e-2	-7.623686562e-3	-3.037219226e-2	3.300960305e-2
2.553539583e0	1.624697405e-2	-1.517398143e-4	-5.375345349e-3	1.711378183e-2
2.563472583e0	2.240982858e-2	-8.290319396e-3	-1.869764149e-2	3.034026384e-2
2.573405583e0	2.515928987e-2	3.533303398e-3	-8.818770647e-3	2.689321133e-2
2.583338583e0	1.762825541e-2	2.263119137e-3	-1.705165029e-2	2.462997918e-2
2.593271583e0	1.451610458e-2	-5.515162325e-3	-2.558390737e-2	2.992775674e-2
2.603203583e0	2.065151601e-2	1.086723758e-2	-1.585472524e-2	2.821266167e-2
2.613136583e0	3.960328298e-3	-4.446597369e-3	-7.472741604e-3	9.555014153e-3
2.623069583e0	1.551694690e-2	3.867430659e-4	-1.645406485e-2	2.261993504e-2
2.633002583e0	1.367206471e-2	-3.481363677e-3	-4.179589748e-3	1.471442207e-2
2.642935583e0	2.088436310e-2	5.723871379e-3	-1.935428381e-3	2.174086495e-2
2.652868583e0	2.723461289e-2	-1.426058239e-3	-1.525889397e-2	3.125046602e-2
2.662801583e0	1.332148416e-2	4.864563653e-4	-1.256449699e-2	1.831843783e-2
2.672733583e0	2.198175300e-2	5.691031041e-4	-1.675636590e-2	2.764592450e-2
2.682666583e0	2.934926300e-2	3.693096838e-3	-8.374966979e-3	3.074342653e-2
2.692599583e0	1.531573644e-2	1.122691900e-2	-3.008041620e-2	3.557312092e-2
2.702532583e0	2.156855586e-2	-1.314070355e-3	-3.921142817e-2	4.477125731e-2
2.712465583e0	1.327594325e-2	-4.697095742e-4	-2.948166132e-2	3.233635184e-2
2.722398583e0	3.044215100e-2	1.653656997e-2	-3.487103999e-2	4.915457388e-2
2.732331583e0	1.993467706e-2	5.147591732e-3	-2.094998896e-2	2.937330570e-2
2.742264583e0	2.259635019e-2	-1.659430666e-3	-2.633819818e-2	3.474261699e-2
2.752196583e0	1.630779309e-3	-3.031872679e-5	-3.127909541e-2	3.132159271e-2
2.762129583e0	1.314039063e-2	-5.156645779e-3	-2.783567011e-2	3.121034111e-2
2.772062583e0	2.322894583e-2	1.685510161e-3	-3.172757685e-2	3.935815039e-2
2.781995583e0	3.913299325e-3	-1.185552210e-2	-1.660901606e-2	2.077803480e-2
2.791928583e0	1.163297501e-2	1.602762924e-3	-1.960279047e-2	2.285091576e-2
2.801861583e0	1.133319443e-2	1.592644500e-3	-2.020154536e-2	2.321810172e-2
2.811794583e0	2.590396476e-2	9.333385010e-3	-2.184753656e-2	3.514885944e-2
2.821726583e0	2.172477930e-2	9.549494446e-3	-1.391403437e-2	2.750925721e-2
2.831659583e0	4.359817608e-3	2.240467572e-2	3.000791073e-3	2.302134337e-2
2.841592583e0	1.097122552e-2	2.201714236e-3	1.138335943e-2	1.596233714e-2
2.851525583e0	4.957921532e-3	6.810795679e-3	-5.981116891e-3	1.033158666e-2
2.861458583e0	2.559544420e-2	-1.275119219e-2	2.251178026e-3	2.868427215e-2
2.871391583e0	5.433085462e-3	-5.052423729e-3	-1.601084590e-2	1.764631943e-2
2.881324583e0	1.787679177e-2	-6.115548033e-4	-7.030692101e-3	1.921937342e-2
2.891256583e0	1.886028431e-2	-6.938434001e-3	5.394056439e-3	2.080740338e-2
2.901189583e0	1.715642508e-2	1.489353435e-2	-1.406606197e-2	2.672104763e-2
2.911122583e0	1.455630076e-2	1.144817216e-2	-2.619084835e-2	3.207658141e-2
2.921055583e0	1.695364775e-3	-5.705151153e-3	-2.484306514e-2	2.554605443e-2
2.930988583e0	3.014009206e-2	-1.901519098e-3	-3.023127437e-2	4.273138044e-2
2.940921583e0	2.216846191e-2	4.902680190e-3	-2.095115840e-2	3.089381839e-2
2.950854583e0	1.195849819e-2	3.132924442e-3	-2.005361080e-2	2.355776307e-2
2.960787583e0	1.343525133e-2	8.820278132e-3	-2.020329952e-2	2.581620801e-2
2.970719583e0	1.404751762e-2	-1.184523922e-2	-3.412435055e-2	3.875711217e-2
2.980652583e0	9.066770249e-3	-1.963951830e-3	-2.035298824e-2	2.236755597e-2
2.990585583e0	1.034519657e-2	-7.265750170e-3	-2.738777339e-2	3.016462082e-2
3.000518583e0	1.547337486e-2	-1.012982603e-2	-2.214866817e-2	2.885484720e-2
3.010451583e0	1.668547526e-2	2.715954012e-3	-2.454310298e-2	2.980176831e-2
3.020384583e0	1.548430527e-2	1.316144746e-2	-1.511271358e-2	2.532551126e-2
3.030317583e0	2.243442343e-2	7.651173044e-4	-2.933314204e-2	3.693672943e-2
3.040249583e0	2.534128903e-2	1.995572476e-3	-2.753687739e-2	3.747589700e-2
3.050182583e0	1.108190691e-2	6.360071283e-3	-2.050209224e-2	2.415771003e-2
3.060115583e0	1.611292207e-2	6.482702927e-3	6.890358925e-3	1.868498705e-2
3.070048583e0	5.465842432e-3	-1.941837477e-3	-2.390341759e-3	6.273746887e-3
3.079981583e0	2.724129151e-2	1.534822846e-2	-1.406606197e-2	3.428571392e-2
3.089914583e0	4.685070121e-3	2.016572203e-3	-1.271886349e-2	1.370350079e-2
3.099847583e0	1.553433094e-2	-5.026727957e-3	-1.511388302e-2	2.224888518e-2
3.109779583e0	2.493525015e-2	-6.303038090e-3	-1.526298702e-2	2.990741985e-2
3.119712583e0	1.809422825e-2	8.855105611e-3	-1.043143272e-3	2.017181547e-2
3.129645583e0	1.088098197e-2	-6.961028008e-3	-1.941275597e-3	1.306216791e-2
3.139578583e0	2.414053132e-2	8.134070830e-3	-6.431937218e-3	2.627352616e-2
3.149511583e0	1.965986707e-2	-2.872636551e-3	-1.601260006e-2	2.551795005e-2
3.159444583e0	5.867709458e-3	-4.188739727e-3	-3.143112302e-2	3.224734174e-2
3.169377583e0	7.734331414e-3	1.090224322e-2	-1.212244749e-2	1.804529088e-2
3.179310583e0	1.288515396e-2	1.332715664e-2	-1.616521239e-2	2.459582055e-2
3.189242583e0	2.037113974e-2	1.049287874e-2	-1.212303221e-2	2.592396089e-2
3.199175583e0	1.906362352e-2	1.058503177e-2	-1.122548461e-2	2.452501058e-2
3.209108583e0	1.071115119e-3	5.655075232e-3	-1.706392944e-2	1.800846610e-2
3.219041583e0	1.545630944e-2	6.418954572e-3	-2.858996093e-2	3.312833146e-2
3.228974583e0	2.287651404e-2	-1.536584320e-4	-1.915957153e-2	2.984037009e-2
3.238907583e0	2.459000176e-2	-1.612712783e-2	-1.721303344e-2	3.407405111e-2
3.248840583e0	1.532724358e-2	9.181083315e-3	-1.017766356e-2	2.056213807e-2
3.258772583e0	3.125358465e-2	3.419977049e-3	-2.080614746e-2	3.770117463e-2
3.268705583e0	1.544149155e-2	6.717642224e-3	-1.167455077e-2	2.049052254e-2
3.278638583e0	9.931202283e-3	1.210047475e-2	1.648330092e-3	1.574062451e-2
3.288571583e0	8.741588542e-3	1.382567289e-2	-1.466774046e-2	2.197059879e-2
3.298504583e0	1.152549816e-2	5.948317666e-3	-1.107521117e-2	1.705520136e-2
3.308437583e0	6.256212399e-3	-7.722239555e-3	-2.290120482e-2	2.496474233e-2
3.318370583e0	-5.963737413e-4	-4.900834663e-4	-8.381983638e-3	8.417451702e-3
3.328303083e0	1.070397921e-2	7.534027733e-3	-1.212361693e-2	1.784149188e-2
3.338236083e0	8.498617318e-3	9.036383000e-3	-3.891322017e-3	1.300096539e-2
3.348169083e0	1.940262841e-2	1.086199336e-2	-3.142878413e-3	2.245712746e-2
3.358102083e0	1.472226803e-2	-1.329410160e-3	-2.275268555e-2	2.713295426e-2
3.368035083e0	2.989218839e-3	1.080944151e-2	-4.484814405e-4	1.122410757e-2
3.377968083e0	1.490868572e-2	4.573874809e-3	-8.381983638e-3	1.770443138e-2
3.387901083e0	-2.786713316e-3	-2.100255908e-3	-3.128494263e-2	3.147895299e-2
3.397833083e0	6.178398749e-3	6.799740787e-3	-1.706392944e-2	1.938006124e-2
3.407766083e0	2.516204218e-3	1.451055086e-3	-2.335027099e-2	2.353023586e-2
3.417699083e0	6.075193109e-3	7.164945086e-3	-2.484774292e-2	2.656416265e-2
3.427632083e0	3.975735483e-3	3.698491808e-3	-3.517626464e-2	3.559290531e-2
3.437565083e0	2.874232658e-2	-9.438073011e-3	-1.900988281e-2	3.572917861e-2
3.447498083e0	2.075505284e-2	3.787593325e-3	-2.709248900e-2	3.433833196e-2
3.457431083e0	9.933794701e-3	-3.460939536e-3	-1.796147704e-2	2.081521168e-2
3.467363083e0	1.034459358e-2	-6.664386881e-3	1.754164696e-6	1.230547325e-2
3.477296083e0	5.746256394e-3	-4.475742085e-3	-2.858820677e-2	2.950147956e-2
3.487229083e0	-5.468466827e-3	4.692961578e-3	-1.541618407e-2	1.701724857e-2
3.497162083e0	3.827303000e-3	-1.437903419e-2	-1.556587279e-2	2.153372397e-2
3.507095083e0	2.991997865e-2	-9.458876308e-4	-2.245272338e-2	3.741957527e-2
3.517028083e0	1.905644697e-2	1.284532780e-3	-7.183889151e-3	2.040603977e-2
3.526961083e0	1.151412008e-2	6.403678721e-3	-1.406898558e-2	1.927481304e-2
3.536893083e0	1.692403138e-2	1.568643050e-2	-5.986379385e-3	2.383954022e-2
3.546826083e0	9.632018987e-3	-8.592305244e-3	-5.387039781e-3	1.398655414e-2
3.556759083e0	2.905946266e-3	1.616210606e-2	-2.842331529e-3	1.666544462e-2
3.566692083e0	1.024563402e-2	5.522654071e-3	-1.494548321e-3	1.173483699e-2
3.576625083e0	1.443240945e-2	1.273750149e-2	-9.877701402e-3	2.163578914e-2
3.586558083e0	4.964102221e-3	5.088562262e-3	-1.526649535e-2	1.684047674e-2
3.596491083e0	1.223191376e-2	-1.276410175e-2	-7.183304429e-3	1.908250168e-2
3.606423083e0	7.411550264e-3	-4.794949810e-3	-1.870875120e-2	2.068671053e-2
3.616356083e0	5.951402300e-3	8.616466122e-3	-2.215159178e-2	2.450215697e-2
3.626289083e0	6.969386557e-3	5.057864380e-3	-8.380229473e-3	1.201593055e-2
3.636222083e0	1.649816907e-2	1.058101638e-2	-9.129257798e-3	2.162153644e-2
3.646155083e0	1.144544156e-2	-1.285336772e-4	-1.885960937e-2	2.206126739e-2
3.656088083e0	8.555687056e-4	1.134199952e-3	-1.526649535e-2	1.533245863e-2
3.666021083e0	8.894505794e-3	5.582103808e-3	-1.421867430e-2	1.767605202e-2
3.675953083e0	1.387215483e-2	-5.371763930e-4	-2.319999754e-2	2.703636669e-2
3.685886083e0	2.052632621e-2	-1.899933955e-3	-2.948750854e-2	3.597850714e-2
3.695819083e0	6.641476530e-3	-6.474749800e-3	-1.811175048e-2	2.034863880e-2
3.705752083e0	1.210369186e-2	1.142600756e-3	-1.436953247e-2	1.882254915e-2
3.715685083e0	6.864067011e-3	1.177258756e-2	-2.095466673e-2	2.499614554e-2
3.725618083e0	-9.842953866e-4	1.566598352e-2	-3.113349974e-2	3.486669877e-2
3.735551083e0	1.930175480e-2	9.640546557e-3	-2.035591185e-2	2.966245141e-2
3.745483083e0	1.983468054e-2	5.087392819e-3	-2.589439452e-2	3.301235807e-2
3.755416083e0	2.111485760e-2	9.091744255e-3	-1.721303344e-2	2.871907981e-2
3.765349083e0	8.876347449e-3	7.956000273e-3	-8.829880357e-3	1.483422635e-2
3.775282083e0	1.325545858e-2	-4.887098274e-3	-2.649314940e-2	3.002462118e-2
3.785215083e0	2.600886290e-2	1.539796177e-2	-1.242240965e-2	3.267834815e-2
3.795148083e0	1.820718344e-2	-2.688654824e-3	-1.526649535e-2	2.391226199e-2
3.805081083e0	9.763613316e-3	-1.457943837e-2	-9.128673077e-3	1.977930333e-2
3.815013083e0	1.102409942e-2	-2.864464154e-3	-1.616404295e-2	1.977402861e-2
3.824946083e0	1.233190343e-2	9.603741076e-3	-7.182134986e-3	1.720147517e-2
3.834879083e0	1.921315121e-2	1.432223397e-2	-1.644237041e-3	2.402030559e-2
3.844812083e0	4.684102818e-3	-3.854776919e-3	-1.212244749e-2	1.355558400e-2
3.854745083e0	5.646693843e-3	5.974616432e-3	-1.496536374e-2	1.707463923e-2
3.864678083e0	7.550661463e-3	1.059240474e-2	-2.541199923e-3	1.325402670e-2
3.874611083e0	1.859511536e-2	-1.504741205e-2	-6.432521939e-3	2.477055234e-2
3.884543083e0	2.846589033e-3	-3.216064540e-3	-2.241822481e-3	4.844781551e-3
3.894476083e0	8.681331386e-3	1.933400128e-3	-8.828126192e-3	1.253153473e-2
3.904409083e0	2.344253822e-5	-2.584332274e-3	-1.343690157e-3	2.912872482e-3
3.914342083e0	1.026323734e-2	-1.010767057e-2	-4.187775850e-3	1.500121700e-2
3.924275083e0	6.924969417e-3	3.374482971e-3	-1.855672359e-2	2.009214591e-2
3.934208083e0	9.753706169e-3	1.070448856e-2	-1.825734615e-2	2.330346644e-2
3.944141083e0	8.989102780e-3	2.679467387e-2	-1.990392208e-2	3.456768188e-2
3.954073083e0	3.125879004e-2	2.512219660e-3	-2.469396114e-2	3.991509638e-2
3.964006083e0	1.785750738e-2	4.426730541e-3	-1.586174190e-2	2.429159050e-2
3.973939083e0	1.492293602e-2	2.392173582e-3	-1.840645015e-2	2.381625330e-2
3.983872083e0	2.472370657e-3	5.263211285e-3	-2.843559444e-2	2.902407692e-2
3.993805083e0	-5.982398253e-4	-1.907334337e-3	-3.098030269e-2	3.104472532e-2
4.003738083e0	2.274187733e-2	1.340789390e-2	-1.167162716e-2	2.886505645e-2
4.013671083e0	8.260303308e-3	1.405413000e-2	-9.875947237e-3	1.906005023e-2
4.023603083e0	-3.043715574e-4	1.474680578e-2	-1.706159055e-2	2.255346526e-2
4.033536083e0	1.486781345e-2	8.413334764e-3	-1.586408079e-2	2.331319665e-2
4.043469083e0	1.957776622e-2	-1.711110002e-3	-1.032618284e-2	2.220015495e-2
4.053402083e0	6.287056461e-3	-1.890043938e-3	-1.616345823e-2	1.744582262e-2
4.063335083e0	-1.915625506e-3	-5.168006737e-3	-1.915664792e-2	1.993376719e-2
4.073268083e0	1.217090743e-2	4.577182140e-3	-5.983455777e-3	1.431374609e-2
4.083201083e0	2.861030056e-3	5.151433535e-3	-1.571380734e-2	1.678232706e-2
4.093133083e0	3.104619579e-2	-3.428871213e-3	-1.197158933e-2	3.345059613e-2
4.103066083e0	1.680531234e-2	-1.680051237e-3	-1.242007077e-2	2.096423748e-2
4.112999083e0	1.355715093e-2	-7.181125428e-3	-8.827541471e-3	1.770001108e-2
4.122932083e0	2.044251688e-2	1.259787180e-3	-2.274917722e-2	3.061059660e-2
4.132865083e0	1.511764945e-2	1.452631094e-2	-9.128088355e-3	2.286654830e-2
4.142798083e0	1.094202484e-2	-8.467069762e-3	-1.661310911e-2	2.161977272e-2
4.152731083e0	2.044724719e-2	-7.544735447e-4	-1.436777830e-2	2.500184396e-2
4.162663083e0	7.865403834e-3	1.136886016e-3	-1.811058104e-2	1.977751837e-2
4.172596083e0	3.544576418e-3	1.432219286e-2	-1.197334349e-2	1.900132060e-2
4.182529083e0	-1.222601401e-3	4.381716116e-3	-2.394902587e-2	2.437724411e-2
4.192462083e0	1.719366568e-2	-7.514974033e-3	-2.544532835e-2	3.161584586e-2
4.202395083e0	1.045022604e-2	-1.901455144e-3	6.737746596e-3	1.257855259e-2
4.212328083e0	5.550646473e-3	-7.324962365e-4	-1.721303344e-2	1.810068361e-2
4.222260083e0	9.867185550e-3	-1.508892272e-3	-2.290120482e-2	2.498205934e-2
4.232193083e0	1.824940673e-2	1.152366063e-2	-1.197392821e-2	2.468219109e-2
4.242126083e0	1.540069580e-2	1.148228244e-2	-1.676455200e-2	2.549655751e-2
4.252059083e0	6.526787735e-3	-2.423611502e-3	-2.724276245e-2	2.811833844e-2
4.261992083e0	3.172032265e-3	-1.493305787e-3	-8.083190918e-3	8.810773308e-3
4.271925083e0	9.371930952e-3	-2.584117572e-3	-2.484891236e-2	2.668293835e-2
4.281858083e0	-6.808357436e-3	6.545656426e-3	-2.559735596e-2	2.728413424e-2
4.291790083e0	1.213151639e-2	-5.213619587e-3	-5.539067388e-3	1.431910565e-2
4.301723083e0	2.197103387e-2	6.101226923e-3	-1.960980713e-2	3.007483724e-2
4.311656083e0	1.008877561e-2	-1.380632683e-3	-7.185643315e-3	1.246286523e-2
4.321589083e0	1.622594464e-2	1.054913992e-2	-1.826260865e-2	2.660993249e-2
4.331521458e0	1.805609915e-2	9.201224232e-3	-6.137822270e-3	2.117446826e-2
4.341454458e0	1.353085673e-2	-5.760937245e-3	-1.137809694e-2	1.859391222e-2
4.351387458e0	2.258466032e-2	3.866941868e-3	-2.005828857e-2	3.045250502e-2
4.361319458e0	2.042070631e-2	1.567142417e-2	-1.571848512e-2	3.016072870e-2
4.371252458e0	3.993666563e-3	1.279021322e-2	-2.155692995e-2	2.538188637e-2
4.381185458e0	6.521157506e-3	2.085765777e-4	-1.541969240e-2	1.674323484e-2
4.391118458e0	1.533904993e-2	-7.086898461e-3	-1.841288209e-2	2.499089453e-2
4.401051458e0	2.244492101e-2	6.640988882e-3	-1.706626832e-2	2.896782227e-2
4.410984458e0	1.119896200e-2	8.103436902e-3	-1.077934206e-2	1.752930845e-2
4.420917458e0	9.945472002e-3	1.695107818e-3	-1.347315431e-2	1.683186534e-2
4.430849458e0	-5.037183281e-3	4.078487735e-3	-2.529856324e-2	2.611560031e-2
4.440782458e0	-1.375877252e-4	3.911303049e-3	-2.724451661e-2	2.752418768e-2
4.450715458e0	2.541080694e-2	1.372941310e-2	-1.976066530e-2	3.499556810e-2
4.460648458e0	1.912545896e-2	1.235570115e-2	-1.152720094e-2	2.552102844e-2
4.470581458e0	1.596460036e-3	-7.746953177e-3	-2.649607301e-2	2.765150725e-2
4.480514458e0	1.115778824e-2	2.606076607e-4	-1.526883423e-2	1.891299695e-2
4.490446458e0	7.355088087e-3	-3.873670734e-3	-1.317377687e-2	1.557726043e-2
4.500379458e0	1.141117825e-2	-9.665721562e-3	-1.631724000e-2	2.213353753e-2
4.510312458e0	7.996542491e-3	-3.171136910e-3	-2.080790162e-2	2.251598479e-2
4.520245458e0	4.289684140e-3	1.169470083e-2	-1.511973023e-2	1.959014190e-2
4.530178458e0	2.348371998e-3	2.248692503e-2	-1.347315431e-2	2.631924268e-2
4.540111458e0	2.342936600e-2	1.612609543e-2	-1.946128786e-2	3.446342801e-2
4.550044458e0	1.484494879e-2	1.234309309e-2	-2.110727906e-2	2.860492407e-2
4.559976458e0	2.108430590e-2	7.814831128e-3	-1.467066407e-2	2.684861123e-2
4.569909458e0	3.069552730e-2	8.502701232e-3	-8.083775640e-3	3.286120438e-2
4.579842458e0	1.388590949e-2	-9.666886437e-3	-5.537897944e-3	1.780268208e-2
4.589775458e0	1.657168524e-2	-5.775016244e-3	-2.065762818e-2	2.710551911e-2
4.599708458e0	1.612289431e-2	-7.088867328e-3	-1.227505982e-2	2.146804263e-2
4.609641458e0	1.174482128e-2	-7.329420866e-3	-2.020914674e-2	2.449634359e-2
4.619574458e0	8.628758979e-3	-4.948274768e-3	-1.092786133e-2	1.477697730e-2
4.629506458e0	1.571751439e-2	5.132434652e-3	-1.062906861e-2	1.965602309e-2
4.639439458e0	1.158568908e-2	7.848498300e-3	-1.257385254e-2	1.881299776e-2
4.649372458e0	-4.393283782e-3	-1.557357010e-2	-1.332229614e-2	2.095997621e-2
4.659305458e0	1.349275733e-2	2.912580343e-3	-1.916074097e-2	2.361507186e-2
4.669238458e0	2.336003081e-2	9.726272221e-3	-1.976008058e-2	3.210532970e-2
4.679171458e0	1.454365501e-2	1.589833725e-2	-1.032969117e-2	2.389513649e-2
4.689103458e0	1.482480673e-2	4.880314590e-3	-3.293268800e-2	3.644385138e-2
4.699036458e0	1.066967821e-2	8.648785693e-3	-3.772331178e-2	4.014588122e-2
4.708969458e0	1.762001792e-2	-6.022179876e-3	-2.574821413e-2	3.177581175e-2
4.718902458e0	1.120711270e-2	1.350033015e-2	-3.592646241e-2	3.998210838e-2
4.728835458e0	8.814058613e-3	2.328741799e-2	-1.616696656e-2	2.968774618e-2
4.738768458e0	4.148279736e-4	-4.073252650e-3	-2.035825074e-2	2.076588169e-2
4.748701458e0	1.877146487e-2	-2.148981487e-2	-2.454953492e-2	3.764119687e-2
4.758633458e0	1.107963883e-2	-2.471713987e-3	-3.143638551e-2	3.342325689e-2
4.768566458e0	6.872387873e-3	1.161973769e-2	-1.122840822e-2	1.755919048e-2
4.778499458e0	1.202932944e-2	4.956771503e-3	-1.212595582e-2	1.778519483e-2
4.788432458e0	1.814266649e-2	1.846206722e-2	-2.395136476e-2	3.526573617e-2
4.798365458e0	2.461469939e-3	4.973417795e-3	-1.856257081e-2	1.937428073e-2
4.808298458e0	5.050304113e-3	9.006489110e-3	-1.961039186e-2	2.216280412e-2
4.818230458e0	9.137947537e-3	2.211841797e-3	-2.844670415e-3	9.822753132e-3
4.828163458e0	-6.027690192e-3	-1.924720667e-3	-8.998864889e-4	6.391196632e-3
4.838096458e0	8.812330716e-3	4.185893778e-3	-7.636463642e-3	1.238928797e-2
4.848029458e0	9.988202357e-3	3.025513832e-3	-8.984831572e-3	1.377116984e-2
4.857962458e0	1.212021025e-2	3.534774338e-3	-1.587109745e-2	2.028018393e-2
4.867895458e0	6.948313740e-3	-8.590866281e-3	-1.482327640e-2	1.848814676e-2
4.877828458e0	1.925542018e-2	-1.019717408e-2	-2.036175907e-2	2.982205221e-2
4.887760458e0	-1.446812429e-3	-6.216503866e-3	-9.883548617e-3	1.176531852e-2
4.897693458e0	-1.822282474e-3	1.251194514e-3	-2.440218508e-2	2.450209864e-2
4.907626458e0	2.435753154e-2	8.253157600e-3	-2.021031618e-2	3.270872717e-2
4.917559458e0	1.675396648e-2	7.438325258e-3	-1.092903078e-2	2.134169134e-2
4.927492458e0	1.683867345e-2	1.619122793e-2	-1.527000368e-2	2.790823889e-2
4.937425458e0	1.049436909e-2	-1.825208366e-3	-1.347373903e-2	1.717570411e-2
4.947357458e0	1.655048909e-2	6.843910106e-3	-2.290412843e-2	2.907502182e-2
4.957290458e0	-3.149526195e-3	2.803283092e-3	-2.006004274e-2	2.049837130e-2
4.967223458e0	7.171198865e-3	3.221226535e-3	-2.694513917e-2	2.806853966e-2
4.977156458e0	1.732604573e-2	6.875270368e-3	-1.122723877e-2	2.176033303e-2
4.987089458e0	1.433929140e-2	5.440094126e-3	5.987548828e-4	1.534823799e-2
4.997022458e0	-1.378147844e-2	1.160120476e-2	-9.729766846e-3	2.047401922e-2
5.006955458e0	7.141404332e-3	3.993209749e-3	-2.275268555e-2	2.417912487e-2
5.016887458e0	1.941547401e-2	-8.503176318e-3	-1.451922119e-2	2.569187464e-2
5.026820458e0	1.614453929e-2	1.786516244e-3	-1.751299560e-2	2.388603785e-2
5.036753458e0	1.859982169e-2	-1.955080507e-3	-1.167513549e-2	2.204732399e-2
5.046686458e0	8.994193969e-3	-3.574521700e-4	-2.393265367e-3	9.314022564e-3
5.056619458e0	-1.301736385e-4	2.009829632e-3	-1.302116454e-2	1.317600418e-2
5.066552458e0	-3.497668501e-3	1.388230865e-2	-1.796147704e-2	2.296882313e-2
5.076484458e0	1.075475862e-2	1.392458676e-2	-1.361991942e-2	2.224996977e-2
5.086417458e0	-1.767856545e-3	1.342728107e-2	-1.466657102e-2	1.996310345e-2
5.096350458e0	6.706463993e-3	1.742392606e-3	-2.185162961e-2	2.292392436e-2
5.106283458e0	3.868905025e-3	-2.818412762e-3	1.799188256e-3	5.113604890e-3
5.116216458e0	1.270768526e-2	7.801400805e-3	-1.346964598e-2	2.009424002e-2
5.126149458e0	6.974040347e-3	9.257183913e-3	-1.272178710e-2	1.720978093e-2
5.136082458e0	7.106012689e-3	8.076713299e-3	-1.347081542e-2	1.723924541e-2
5.146014458e0	1.050483698e-2	2.694698470e-4	-2.080556273e-2	2.330870341e-2
5.155947458e0	3.384360425e-3	9.072736236e-3	-2.290003538e-2	2.486322704e-2
5.165880458e0	1.983808152e-2	2.705223458e-3	-1.736096799e-2	2.650039475e-2
5.175813458e0	2.361146794e-2	2.310887234e-2	-2.319999754e-2	4.037030202e-2
5.185746458e0	4.142861925e-3	1.562685742e-2	-2.140431762e-2	2.682362374e-2
5.195679458e0	1.190567339e-2	9.940111293e-3	-1.197392821e-2	1.959402532e-2
5.205612458e0	9.666735688e-3	1.835281109e-3	-3.113408446e-2	3.265187975e-2
5.215544458e0	7.781295291e-3	1.148415081e-2	-3.727132201e-2	3.976915539e-2
5.225477458e0	9.777328006e-3	1.032012092e-2	-3.218249023e-2	3.518257688e-2
5.235410458e0	2.090952440e-2	1.108938153e-2	-2.469805419e-2	3.420784229e-2
5.245343458e0	1.401788183e-2	-1.140171421e-2	-1.002855957e-2	2.066572294e-2
5.255276458e0	-2.606616790e-3	-1.120568173e-2	-2.155459106e-2	2.443280888e-2
5.265209458e0	3.894024070e-3	-2.329234701e-2	-2.859054565e-2	3.708255861e-2
5.275141458e0	-2.492093589e-2	-3.247306944e-2	-9.729182124e-3	4.207386682e-2
5.285074458e0	-1.944739615e-2	-4.345545149e-2	-2.799179077e-2	5.522787187e-2
5.295007458e0	-8.033651754e-4	-6.891035009e-3	-1.916074097e-2	2.037807041e-2
5.304940458e0	1.236055708e-3	8.167756274e-3	-1.496945679e-2	1.709750604e-2
5.314873458e0	1.869972685e-2	2.242282493e-2	-6.288095713e-3	2.986641943e-2
5.324806458e0	2.193279171e-2	4.078266637e-2	-1.498641372e-3	4.633054235e-2
5.334738958e0	1.288517794e-2	6.131001585e-2	3.590775132e-3	6.275220729e-2
5.344671958e0	1.958366140e-2	6.015666626e-2	1.481684446e-2	6.497601996e-2
5.354604958e0	1.612016485e-2	4.458483662e-2	-3.145802021e-3	4.751382369e-2
5.364537958e0	2.758800855e-2	3.747496043e-2	4.189530015e-3	4.672283208e-2
5.374470958e0	2.517293947e-2	1.269442395e-2	-3.144632578e-3	2.836748129e-2
5.384403958e0	1.435419495e-2	-8.278264082e-3	-2.260416627e-2	2.802714580e-2
5.394336958e0	7.090321138e-3	-1.187384033e-2	-1.661720216e-2	2.161925405e-2
5.404268958e0	2.420496261e-2	-2.100884027e-2	-1.676689088e-2	3.617153874e-2
5.414201958e0	1.718631440e-3	-2.470472824e-2	-3.128611207e-2	3.990110400e-2
5.424134958e0	-3.435186091e-3	-5.550163393e-3	-2.110727906e-2	2.209348426e-2
5.434067958e0	-4.077591238e-3	-1.874821534e-2	-3.053766847e-2	3.606482392e-2
5.444000958e0	-9.594549984e-3	-2.490596839e-2	-4.340972900e-2	5.095848529e-2
5.453933958e0	4.666267668e-3	-1.105901255e-2	-3.936871827e-2	4.115788856e-2
5.463865958e0	5.066650621e-3	-1.192778546e-2	-3.502774537e-2	3.734817211e-2
5.473798958e0	-5.336518467e-3	-1.267580423e-2	-3.667432129e-2	3.916835821e-2
5.483731958e0	-4.278685207e-3	-1.276245722e-2	-3.697311401e-2	3.934715519e-2
5.493664958e0	-7.048329107e-3	-1.048424496e-2	-2.350171387e-2	2.668199562e-2
5.503597958e0	8.594376894e-3	-6.257000403e-3	-3.083646119e-2	3.261749081e-2
5.513530958e0	4.936603177e-4	-1.010829183e-2	-8.083190918e-3	1.295219054e-2
5.523462958e0	-6.859309296e-3	-9.561225423e-3	-4.788869619e-3	1.270434681e-2
5.533395958e0	9.275257177e-3	5.620773090e-3	1.317377687e-2	1.706375934e-2
5.543328958e0	5.065409230e-3	8.450976214e-3	-5.686417222e-3	1.137597075e-2
5.553261958e0	2.203086276e-2	3.007259555e-2	-1.092727661e-2	3.884746184e-2
5.563194958e0	3.116328400e-2	2.605107249e-2	-8.681945801e-3	4.153534435e-2
5.573127958e0	3.950245962e-2	5.154722137e-2	2.844085693e-3	6.500499343e-2
5.583059958e0	2.124283853e-2	4.270220221e-2	7.933502197e-3	4.834952657e-2
5.592992958e0	1.934152272e-2	3.402248109e-2	-1.931101441e-2	4.364102426e-2
5.602925958e0	2.136772912e-2	2.395917627e-2	3.291397691e-3	3.227158617e-2
5.612858958e0	-5.009139486e-3	-2.995784394e-5	1.212244749e-2	1.311663482e-2
5.622791958e0	2.498575776e-3	-8.134413441e-3	-4.343896508e-3	9.554109054e-3
5.632724958e0	2.118770569e-4	-2.863584787e-2	2.242407203e-3	2.872429399e-2
5.642657958e0	6.395357859e-4	-3.155690668e-2	-6.589227319e-3	3.224384099e-2
5.652589958e0	-9.360780700e-3	-3.441597129e-2	-7.786737084e-3	3.650639081e-2
5.662522958e0	-1.745724149e-2	-3.855003042e-2	-1.646809816e-2	4.540989300e-2
5.672455958e0	-1.916176880e-2	-2.602533560e-2	-2.440043092e-2	4.049533931e-2
5.682388958e0	-4.455823865e-4	-5.929136057e-3	-4.760218263e-2	4.797208552e-2
5.692321958e0	1.414779508e-3	-1.656286417e-2	-3.697428346e-2	4.053921198e-2
5.702254958e0	5.106088492e-3	-2.794411769e-3	-2.440043092e-2	2.508509330e-2
5.712186958e0	1.791476099e-2	4.271445852e-3	-4.580650270e-2	4.937022990e-2
5.722119958e0	3.707590395e-3	1.622905668e-2	-3.487922609e-2	3.864827189e-2
5.732052958e0	1.806962769e-2	2.588901325e-2	-3.472895265e-2	4.693455661e-2
5.741985958e0	2.504767658e-2	1.856596494e-2	-3.158490479e-2	4.438116004e-2
5.751918958e0	2.086550355e-2	2.177798211e-2	-3.936930299e-2	4.959427145e-2
5.761851958e0	2.779591590e-2	2.427160945e-2	-1.362225831e-2	3.933560585e-2
5.771783958e0	2.190152281e-2	1.508521339e-2	-1.571790040e-2	3.089162924e-2
5.781716958e0	1.875598003e-2	2.758427639e-2	-1.886194825e-2	3.832038860e-2
5.791649958e0	6.325534452e-3	3.231390640e-3	-1.511973023e-2	1.670510443e-2
5.801582958e0	9.042936564e-3	2.131865134e-2	-4.043349624e-3	2.350762159e-2
5.811515958e0	1.252582543e-2	7.169677676e-3	-9.283039570e-3	1.716028567e-2
5.821448958e0	1.289044957e-2	9.692070577e-3	-9.133350849e-3	1.853423913e-2
5.831380958e0	3.954176159e-3	7.844967130e-3	2.970385551e-4	8.790179194e-3
5.841313958e0	3.445769894e-3	-1.627619072e-2	5.686417222e-3	1.758189567e-2
5.851246958e0	1.278830146e-2	-2.328022317e-2	-3.295490742e-3	2.676508368e-2
5.861179958e0	7.739207901e-3	-1.697152973e-2	-1.272529542e-2	2.258010859e-2
5.871112958e0	-1.223387692e-2	-7.595085455e-3	-1.302408814e-2	1.941597125e-2
5.881045958e0	-7.162153954e-3	-1.137280247e-2	-2.845255136e-3	1.373799702e-2
5.890978958e0	-8.990084929e-3	-6.846701237e-3	7.484436035e-4	1.132515398e-2
5.900910958e0	-5.914370696e-3	5.354423281e-3	-1.107638061e-2	1.365048852e-2
5.910843958e0	-4.774231024e-3	1.338289248e-2	-1.466890991e-2	2.042234098e-2
5.920776958e0	-2.841904979e-3	-3.502546130e-3	-2.394961059e-2	2.437064014e-2
5.930709958e0	1.304773511e-2	-3.878257144e-4	-1.526766479e-2	2.008719464e-2
5.940642958e0	2.483461637e-2	1.415135823e-3	-2.604525268e-2	3.601549621e-2
5.950575958e0	5.947006610e-4	1.475472693e-2	-2.365023315e-2	2.788169944e-2
5.960507958e0	1.293970437e-2	1.185272183e-2	-2.604583740e-2	3.140555062e-2
5.970440958e0	2.972193620e-2	1.170367265e-2	-3.323089600e-2	4.609405486e-2
5.980373958e0	1.813861798e-2	1.496173207e-2	-2.185513794e-2	3.210155671e-2
5.990306958e0	1.451523092e-2	1.602861595e-2	-1.886253297e-2	2.869501016e-2
6.000239958e0	-1.869342282e-3	-3.766429145e-5	-2.500035524e-2	2.507017394e-2
6.010172958e0	7.212040296e-3	-5.127185863e-4	-2.934132814e-2	3.021903279e-2
6.020104958e0	7.456387673e-3	-4.035309702e-4	-3.502891481e-2	3.581599401e-2
6.030037958e0	-3.086187259e-3	-4.033276881e-3	-1.856315553e-2	1.924532716e-2
6.039970958e0	5.418219601e-3	-5.167335221e-3	-2.275385499e-2	2.395404713e-2
6.049903958e0	8.216686734e-3	-6.170219500e-3	-1.092903078e-2	1.500097541e-2
6.059836958e0	8.707527369e-3	-3.627110096e-3	-2.125638306e-2	2.325533877e-2
6.069769958e0	-6.657884708e-3	-8.278474216e-3	-2.125638306e-2	2.376329912e-2
6.079701958e0	4.409476686e-3	5.395888262e-3	-1.886194825e-2	2.010801300e-2
6.089634958e0	8.528093794e-3	1.386795100e-3	5.237935781e-3	1.010383866e-2
6.099567958e0	-2.843454719e-3	8.531352589e-3	-2.035942018e-2	2.225702590e-2
6.109500958e0	-4.147786948e-3	2.123083804e-2	-2.155692995e-2	3.053938194e-2
6.119433958e0	1.343392314e-2	1.177571217e-2	7.482097149e-3	1.936800108e-2
6.129366958e0	1.966872012e-2	1.292853642e-2	1.195755601e-3	2.356767779e-2
6.139298958e0	1.816259613e-2	1.228216327e-2	-2.470039308e-2	3.302787991e-2
6.149231958e0	1.361392374e-2	1.562049401e-2	-2.559911013e-2	3.293407342e-2
6.159164958e0	6.752919093e-3	8.892340497e-3	-2.634755373e-2	2.861589110e-2
6.169097958e0	5.184424051e-3	5.998640265e-3	-2.006062746e-2	2.157059832e-2
6.179030958e0	7.583795304e-3	2.463061935e-3	-2.260533571e-2	2.397043654e-2
6.188963958e0	5.146129928e-3	1.187839019e-3	-2.814323366e-2	2.863451092e-2
6.198895958e0	3.383997830e-3	4.195505138e-3	-2.754447877e-2	2.806692031e-2
6.208828958e0	-1.200638369e-3	-2.615094110e-3	-2.604700685e-2	2.620547300e-2
6.218761958e0	1.213417161e-4	3.517017988e-3	-2.484949708e-2	2.509744299e-2
6.228694958e0	6.434333206e-3	-1.347385323e-2	-2.724451661e-2	3.106781373e-2
6.238627958e0	5.162868153e-3	-6.718510170e-3	-3.293151855e-2	3.400409535e-2
6.248560958e0	1.634708592e-2	-1.817203619e-2	-3.038739502e-2	3.899799859e-2
6.258492958e0	1.433004777e-2	-1.144889393e-2	-2.200482666e-2	2.864681200e-2
6.268425958e0	3.826261464e-3	-7.134429929e-3	-1.287381470e-2	1.520774382e-2
6.278358958e0	5.195256817e-3	-2.506765304e-3	-2.993832886e-2	3.048898327e-2
6.288291958e0	1.183688181e-2	4.515137700e-3	-1.856140137e-2	2.247273593e-2
6.298224958e0	1.650423099e-2	1.214941777e-3	-1.901046753e-2	2.520443611e-2
6.308157958e0	5.812520079e-3	1.238312367e-2	-9.880040288e-3	1.687430999e-2
6.318089958e0	7.216892800e-3	-1.485119686e-3	2.982079983e-4	7.374147420e-3
6.328022958e0	2.273149853e-2	1.526316517e-2	-9.430389404e-3	2.895889295e-2
6.337955833e0	1.701024469e-2	1.017768641e-2	-1.631607056e-2	2.567387550e-2
6.347888833e0	1.760596176e-2	-4.224718376e-3	-1.631607056e-2	2.437277771e-2
6.357821833e0	1.505089069e-2	2.558586253e-3	-2.065704346e-2	2.568636056e-2
6.367754833e0	1.310485624e-2	-5.624482417e-3	-6.137822270e-3	1.552562146e-2
6.377686833e0	1.267382165e-2	1.451265221e-3	1.945368648e-3	1.290412280e-2
6.387619833e0	1.393710118e-2	7.669623750e-3	-7.496130466e-4	1.592569739e-2
6.397552833e0	1.260569474e-2	1.138060028e-3	-1.961156130e-2	2.334120942e-2
6.407485833e0	1.736687003e-2	-4.969799831e-3	-2.470156252e-2	3.060186720e-2
6.417418833e0	1.245278320e-2	-7.564049531e-3	-1.048054934e-2	1.794794052e-2
6.427351833e0	1.298401188e-2	-3.526871460e-3	-1.871342897e-2	2.304811946e-2
6.437283833e0	2.147801081e-3	-7.645700416e-3	-3.338350832e-2	3.431513387e-2
6.447216833e0	1.192092640e-2	-4.224786898e-3	-1.452272952e-2	1.925790703e-2
6.457149833e0	2.558111167e-3	-9.071205910e-3	-1.227681398e-2	1.547743102e-2
6.467082833e0	5.395438301e-4	1.107691051e-3	-2.934074342e-2	2.936660198e-2
6.477015833e0	2.184000827e-2	-6.956057874e-3	-2.215568483e-2	3.187863035e-2
6.486948833e0	1.538114646e-2	1.027403756e-2	-4.386113405e-2	4.760183394e-2
6.496880833e0	6.427158946e-3	-9.741707956e-3	-3.173634768e-2	3.381427228e-2
6.506813833e0	-1.728110896e-3	-5.419240580e-3	-2.664693117e-2	2.724726549e-2
6.516746833e0	5.786388621e-3	3.891600673e-3	-4.176549196e-2	4.234363196e-2
6.526679833e0	3.094626779e-2	3.035294213e-3	-3.053825319e-2	4.358290271e-2
6.536612833e0	1.024180250e-2	1.795828391e-2	-2.694630861e-2	3.396318635e-2
6.546545833e0	7.738031034e-3	9.914397248e-3	-2.874198854e-2	3.137314620e-2
6.556477833e0	-1.205289303e-3	7.207077015e-3	-1.661603272e-2	1.815178296e-2
6.566410833e0	1.245962398e-2	2.121091182e-3	-1.691541016e-2	2.111568987e-2
6.576343833e0	9.544152010e-5	8.874479081e-3	-2.305323243e-2	2.470257099e-2
6.586276833e0	8.607543979e-3	1.402066383e-3	-2.604583740e-2	2.746709394e-2
6.596209833e0	1.353204787e-2	7.334116912e-3	-9.280115962e-3	1.797292805e-2
6.606142833e0	1.463499834e-2	1.167750636e-2	2.844085693e-3	1.893769137e-2
6.616074833e0	7.943277440e-3	-4.585491582e-3	-8.083190918e-3	1.222539836e-2
6.626007833e0	7.086495894e-3	1.268137735e-3	-1.167513549e-2	1.371624534e-2
6.635940833e0	2.960279690e-3	-1.252807067e-2	-1.915957153e-2	2.308256900e-2
6.645873833e0	3.792774163e-3	-1.810128945e-3	-1.272354126e-2	1.339963450e-2
6.655806833e0	9.194610711e-3	5.043931562e-3	-5.837275386e-3	1.200232876e-2
6.665739833e0	-1.609883507e-3	5.353642129e-3	-1.466890991e-2	1.569809310e-2
6.675671833e0	-1.608298021e-2	2.323834249e-3	5.847215652e-7	1.624999872e-2
6.685604833e0	-6.069213417e-3	1.951683640e-2	-2.574587524e-2	3.287236448e-2
6.695537833e0	1.119921097e-2	3.435696010e-5	-2.814089477e-2	3.028751335e-2
6.705470833e0	1.302638478e-2	1.945624463e-3	-3.233217895e-2	3.491191703e-2
6.715403833e0	9.104757736e-3	8.731537499e-3	-3.068560302e-2	3.317744103e-2
6.725336833e0	1.281419594e-2	1.874599066e-3	-1.077758789e-2	1.684856493e-2
6.735268833e0	8.012950669e-3	-4.810307887e-3	-2.679428101e-2	2.837745470e-2
6.745201833e0	-3.352187035e-3	-8.268675562e-3	-2.544708252e-2	2.696594449e-2
6.755134833e0	1.159467689e-2	6.304065920e-3	-1.032852173e-2	1.675876309e-2
6.765067833e0	9.249622504e-3	-2.720741420e-3	-1.990918458e-2	2.212088562e-2
6.775000833e0	-1.489613020e-3	1.368682436e-3	-3.607615113e-2	3.613282329e-2
6.784933833e0	4.330124145e-3	-6.629385813e-3	-3.053708375e-2	3.154698425e-2
6.794865833e0	-6.080047897e-3	-5.002069152e-3	-1.586758912e-2	1.771349944e-2
6.804798833e0	-5.549949261e-3	7.769994861e-3	-2.095817506e-2	2.303084581e-2
6.814731833e0	-3.460498140e-3	-3.293846212e-3	-8.084945083e-3	9.390996073e-3
6.824664833e0	1.677687455e-2	-1.599574364e-3	1.644821763e-3	1.693303270e-2
6.834597833e0	7.954427692e-3	-8.410982173e-3	4.467272758e-4	1.158521067e-2
6.844530833e0	9.841842667e-3	-9.927462121e-3	-1.931218386e-2	2.384065470e-2
6.854462833e0	2.766490172e-3	3.211377631e-3	-2.230595827e-2	2.270511371e-2
6.864395833e0	4.703474004e-4	-3.870281177e-3	-9.581832290e-3	1.034465142e-2
6.874328833e0	7.018457487e-3	2.552697924e-3	-1.272529542e-2	1.475493666e-2
6.884261833e0	9.919844752e-3	5.937756132e-4	-1.631782472e-2	1.910568745e-2
6.894194833e0	7.087997669e-3	6.479555480e-3	-5.689340830e-3	1.116212118e-2
6.904127833e0	-1.364926285e-3	5.146189313e-4	-1.392222047e-2	1.399843131e-2
6.914059833e0	1.305317233e-2	8.827728764e-3	-1.347373903e-2	2.073296280e-2
6.923992833e0	9.696081402e-3	1.363024798e-2	-1.886253297e-2	2.521096596e-2
6.933925833e0	8.596952753e-3	3.593273903e-3	-2.514945924e-2	2.682003941e-2
6.943858833e0	1.169997246e-2	1.143077213e-2	-3.353202760e-2	3.730882981e-2
6.953791833e0	6.885821052e-3	-3.670525672e-3	-9.881209731e-3	1.259069482e-2
6.963724833e0	1.298292923e-2	-1.314225672e-3	-1.586875856e-2	2.054510011e-2
6.973656833e0	-2.436730050e-4	7.144607739e-3	-2.365198731e-2	2.470872923e-2
6.983589833e0	-4.504885658e-3	5.567805539e-3	-1.137692750e-2	1.344354613e-2
6.993522833e0	4.526465539e-3	1.014569574e-3	-1.841229737e-2	1.898765220e-2
7.003455833e0	2.906979236e-3	8.477357207e-3	-1.856081665e-2	2.061116270e-2
7.013388833e0	6.406927237e-3	-6.352118156e-3	-2.110552490e-2	2.295302383e-2
7.023320833e0	-2.265882860e-3	-1.424837633e-2	-2.814089477e-2	3.162373178e-2
7.033253833e0	-1.790893204e-2	5.630580881e-3	-1.886019409e-2	2.661090395e-2
7.043186833e0	-3.084507898e-3	1.576479232e-2	-6.436030269e-3	1.730506722e-2
7.053119833e0	1.645808252e-2	2.961340640e-4	-2.589497924e-2	3.068397180e-2
7.063052833e0	-1.845244216e-3	9.866916030e-3	-1.377136230e-2	1.704146056e-2
7.072985833e0	7.447003006e-3	9.297534269e-3	-1.781295776e-2	2.142903315e-2
7.082917833e0	1.947195674e-2	3.883620137e-3	-1.526824951e-2	2.504713652e-2
7.092850833e0	1.833642289e-2	2.086586671e-2	-2.739303589e-2	3.901265453e-2
7.102783833e0	1.361714884e-2	-7.387363119e-4	-1.182540894e-2	1.805028450e-2
7.112716833e0	8.690265521e-3	1.385824371e-2	-1.392163575e-2	2.147984114e-2
7.122649833e0	5.330893377e-3	1.553325172e-2	-1.631782472e-2	2.315106341e-2
7.132582833e0	1.230827931e-2	5.166115528e-3	-6.588642597e-3	1.488599008e-2
7.142514833e0	2.165160002e-4	-1.203324091e-2	-1.796498537e-2	2.162374772e-2
7.152447833e0	-1.281090232e-2	8.230138756e-3	-1.991035402e-2	2.506544632e-2
7.162380833e0	2.467264622e-3	-8.167144144e-4	-1.811350465e-2	1.829900182e-2
7.172313833e0	2.394356695e-2	4.719479615e-4	-8.982492685e-3	2.557737883e-2
7.182246833e0	-1.845287613e-4	3.632363454e-3	-6.288095713e-3	7.264176678e-3
7.192179833e0	-5.545147578e-4	-1.416072291e-3	-1.901222169e-2	1.907294736e-2
7.202111833e0	1.875009513e-2	7.890086621e-4	-3.068735719e-2	3.597085616e-2
7.212044833e0	1.417364161e-2	3.616525722e-3	-1.452097535e-2	2.061140703e-2
7.221977833e0	-5.481529415e-3	2.184204566e-3	-1.317319214e-2	1.443436544e-2
7.231910833e0	1.274052103e-2	-3.129891199e-3	-2.529739380e-2	2.849693366e-2
7.241843833e0	2.721559688e-3	7.790044416e-5	-1.631607056e-2	1.654167809e-2
7.251776833e0	1.008878817e-2	7.307169470e-3	-1.062789917e-2	1.637469429e-2
7.261708833e0	4.789406947e-3	8.039551503e-3	-2.829116821e-2	2.979870813e-2
7.271641833e0	2.350776209e-2	1.226768685e-3	-2.365023315e-2	3.336844869e-2
7.281574833e0	9.361704606e-3	7.155233226e-3	-1.631548584e-2	2.012545537e-2
7.291507833e0	6.297804717e-3	-7.348104548e-3	-2.335085571e-2	2.527685596e-2
7.301440833e0	2.074901034e-3	-1.020456532e-2	-2.409929931e-2	2.625289689e-2
7.311372833e0	-4.255520754e-3	4.047671081e-3	-2.185396850e-2	2.262938438e-2
7.321305833e0	2.902469342e-3	2.733253548e-3	-1.197509766e-2	1.262132985e-2
7.331238708e0	1.095376724e-2	4.826556752e-4	-6.285756826e-3	1.263838250e-2
7.341171708e0	-5.320065750e-3	-4.822440860e-3	-1.347140014e-2	1.526557098e-2
7.351104708e0	-5.150574725e-6	5.048376359e-3	-2.394961059e-2	2.447590607e-2
7.361037708e0	-7.334810126e-3	-8.633080437e-3	-7.034785151e-3	1.333483107e-2
7.370969708e0	1.007356257e-2	1.698342059e-3	-5.088831782e-3	1.141302929e-2
7.380902708e0	6.478069694e-4	2.059019334e-3	-1.227330565e-2	1.246167108e-2
7.390835708e0	-9.337080062e-3	-9.114900143e-3	-9.878286123e-3	1.636590986e-2
7.400768708e0	5.814496370e-3	3.607887374e-3	-1.077641845e-2	1.276543826e-2
7.410701708e0	-4.933736671e-4	-5.605401308e-3	-1.990684569e-2	2.068686653e-2
7.420634708e0	7.048294846e-3	-6.006547711e-3	-1.571614623e-2	1.824155498e-2
7.430566708e0	1.350187761e-2	4.763233233e-3	-1.616521239e-2	2.159405431e-2
7.440499708e0	1.037839551e-2	2.859663041e-3	-2.080556273e-2	2.342563141e-2
7.450432708e0	1.027879984e-2	-8.022210854e-3	-3.293034911e-2	3.541775664e-2
7.460365708e0	1.357910768e-2	-4.836428496e-3	-1.766151488e-2	2.279719969e-2
7.470298708e0	6.994395966e-3	3.742811875e-4	-2.873848021e-2	2.957975500e-2
7.480230708e0	-2.099835640e-4	1.716306715e-2	-2.364906371e-2	2.922145071e-2
7.490163708e0	2.211774417e-3	-6.150503419e-3	-1.586583495e-2	1.715941016e-2
7.500096708e0	6.463389985e-3	3.675842984e-4	-9.579493403e-3	1.156188662e-2
7.510029708e0	6.223152790e-3	7.364019938e-3	-2.290120482e-2	2.484796979e-2
7.519962708e0	1.858380351e-2	-5.848814500e-4	-4.236073852e-2	4.626156079e-2
7.529895708e0	1.835229945e-2	5.685028508e-3	-4.190114737e-3	1.966426978e-2
7.539827708e0	1.012182266e-2	2.339900387e-3	-9.878286123e-3	1.433551410e-2
7.549760708e0	1.968661122e-2	6.798370345e-3	-5.686417222e-3	2.158971611e-2
7.559693708e0	8.528460958e-4	8.987028846e-3	-1.137458861e-2	1.452154606e-2
7.569626708e0	-5.888825672e-3	-1.987400078e-3	-1.631373167e-2	1.745754473e-2
7.579559708e0	-8.497374784e-4	-1.611401271e-3	-1.406840086e-2	1.418585812e-2
7.589492708e0	-6.122538996e-3	1.877164531e-2	-1.167338133e-2	2.293747988e-2
7.599424708e0	-1.646630403e-2	5.265719192e-3	-5.835521221e-3	1.824610300e-2
7.609357708e0	3.399620859e-3	1.196852411e-2	-2.649197996e-2	2.926820789e-2
7.619290708e0	6.293824157e-3	1.921792491e-2	-8.379060030e-3	2.188948395e-2
7.629223708e0	2.300560046e-2	-9.305295534e-4	-1.062439084e-2	2.535746870e-2
7.639156708e0	2.124340042e-2	-1.527516567e-3	-1.152310789e-2	2.421564336e-2
7.649088708e0	1.937450695e-2	-2.112790877e-3	-1.885785520e-2	2.711925714e-2
7.659021708e0	5.028398753e-3	5.357662090e-3	-3.532361448e-2	3.607973222e-2
7.668954708e0	2.323524187e-3	5.304872696e-3	-1.616228878e-2	1.716857646e-2
7.678887708e0	6.890646718e-4	1.666132123e-3	-1.331820309e-2	1.343969270e-2
7.688820708e0	9.944345956e-3	1.471154890e-2	-2.439516842e-2	3.017356343e-2
7.698753708e0	4.354637341e-3	1.402700440e-2	-1.212010860e-2	1.904249856e-2
7.708685708e0	1.457434033e-2	7.403730755e-3	-3.322680295e-2	3.703035321e-2
7.718618708e0	2.522456856e-3	7.718004892e-3	-2.783917844e-2	2.899914213e-2
7.728551708e0	6.284561687e-3	5.591016244e-3	-1.990509152e-2	2.160943884e-2
7.738484708e0	7.751078205e-4	-4.170691017e-3	-2.664108396e-2	2.697670866e-2
7.748417708e0	4.793049465e-4	8.175809900e-3	-5.235012174e-3	9.720028458e-3
7.758350708e0	-1.456437494e-3	5.868457491e-4	-1.885610104e-2	1.892136740e-2
7.768282708e0	9.468081676e-3	-9.409490176e-3	-1.840645015e-2	2.273720482e-2
7.778215708e0	-1.049645331e-2	-1.495510370e-2	-1.940106153e-3	1.837374950e-2
7.788148708e0	6.118753153e-3	-1.279756792e-2	-9.424542189e-3	1.703052789e-2
7.798081708e0	-2.886030900e-3	-8.010365674e-3	-2.124995112e-2	2.289225973e-2
7.808014708e0	-4.449205776e-4	-9.631003719e-5	-1.646108150e-2	1.646737484e-2
7.817946708e0	1.406950635e-2	-1.487979339e-3	-9.874193072e-3	1.725296439e-2
7.827879708e0	1.008778661e-2	2.145966060e-2	-2.139963984e-2	3.194096206e-2
7.837812708e0	-3.511749213e-3	-8.084552223e-4	-2.544065058e-2	2.569460419e-2
7.847745708e0	-5.472439964e-3	-3.693750082e-4	-2.813504755e-2	2.866469846e-2
7.857678708e0	-3.873796929e-3	6.565386211e-3	-2.514127314e-2	2.627154761e-2
7.867611708e0	5.596943402e-3	-2.223846861e-3	-2.035181880e-2	2.122422669e-2
7.877543708e0	1.951095264e-2	1.351728708e-2	-1.616053462e-2	2.871510408e-2
7.887476708e0	1.256082878e-2	5.868000677e-3	-2.424372554e-2	2.792787281e-2
7.897409708e0	4.684291254e-3	1.391253602e-3	-2.169901729e-2	2.224242618e-2
7.907342708e0	8.667646389e-4	-3.070884570e-4	-8.525825143e-3	8.575271344e-3
7.917275708e0	9.511546930e-3	-1.213580472e-2	-2.079971552e-2	2.589160959e-2
7.927207708e0	4.630183952e-3	8.055832344e-3	-1.241597772e-2	1.550778968e-2
7.937140708e0	-6.157760476e-3	-8.619115641e-4	-1.855263054e-2	1.956683433e-2
7.947073708e0	-3.348615894e-5	-1.268075609e-2	-2.783274651e-2	3.058536373e-2
7.957006708e0	4.762201405e-3	-3.860094231e-3	-1.301356316e-2	1.438512133e-2
7.966939708e0	7.795592418e-3	3.226977820e-4	-2.873087883e-2	2.977144258e-2
7.976872708e0	9.314773277e-3	1.090136614e-2	-2.214515984e-2	2.638205620e-2
7.986804708e0	8.845451424e-3	-3.642924987e-3	-1.810356438e-2	2.047564301e-2
7.996737708e0	-4.477439148e-3	-3.762505115e-3	-2.289360344e-2	2.362881683e-2
8.006670708e0	2.205967172e-3	-3.712018062e-3	-3.172465324e-2	3.201716716e-2
8.016603708e0	3.822695462e-3	-2.524517085e-3	-2.154582024e-2	2.202745007e-2
8.026536708e0	-3.698572321e-3	6.452242588e-3	-1.720484734e-2	1.874346936e-2
8.036468708e0	2.283627789e-3	-1.390038477e-3	-9.571307302e-3	9.937660002e-3
8.046401708e0	4.270832579e-3	1.301346723e-2	-6.278155446e-3	1.506670422e-2
8.056334708e0	2.535056920e-3	6.895178310e-3	-9.122241139e-3	1.171261204e-2
8.066267708e0	6.064150779e-3	-6.039515957e-3	-2.214574456e-2	2.374202350e-2
8.076200708e0	7.346141391e-3	1.461205487e-3	4.050366282e-3	8.515067929e-3
8.086133708e0	1.313785532e-2	2.010259037e-3	1.078694344e-2	1.711731674e-2
8.096065708e0	1.600067266e-2	9.775411673e-3	-1.196574211e-2	2.224318285e-2
8.105998708e0	2.031216508e-2	4.599415264e-3	-1.391228020e-2	2.504576235e-2
8.115931708e0	7.307346485e-4	-2.068187585e-3	-1.960103631e-2	1.972338707e-2
8.125864708e0	-2.949820369e-3	-1.071608249e-2	-3.127675653e-2	3.319294146e-2
8.135797708e0	-3.295792810e-3	-1.796160952e-2	-2.663582146e-2	3.229471554e-2
8.145729708e0	4.961433858e-3	4.814588232e-4	-1.555827141e-2	1.633730203e-2
8.155662708e0	1.657817999e-2	9.028224307e-3	-2.962842643e-2	3.513101961e-2
8.165595708e0	2.288930483e-2	-2.834711876e-4	-1.795270622e-2	2.909124081e-2
8.175528708e0	7.692828174e-3	-1.938699167e-3	-1.376025259e-2	1.588340994e-2
8.185461708e0	1.664594717e-2	-2.630114146e-3	-1.525655508e-2	2.273252143e-2
8.195394708e0	8.560216935e-3	7.151272651e-3	-2.902850211e-2	3.109778045e-2
8.205326708e0	6.221103980e-3	1.268626526e-2	-3.606387198e-2	3.873301335e-2
8.215259708e0	1.585230698e-3	-1.990291709e-4	-2.438698232e-2	2.443926095e-2
8.225192708e0	-1.161091091e-2	-8.185928324e-3	-1.256215811e-2	1.896392604e-2
8.235125708e0	-3.758435190e-3	3.773295055e-3	-1.286095083e-2	1.392004479e-2
8.245058708e0	1.503566280e-2	-5.049742232e-3	-2.722989857e-2	3.151251226e-2
8.254990708e0	-6.678550390e-3	-4.111031145e-3	-1.734985828e-2	1.903998936e-2
8.264923708e0	1.872347088e-2	6.760176150e-3	-6.572270393e-3	2.096337477e-2
8.274856708e0	-1.377648833e-3	9.477646784e-3	-2.752752185e-2	2.914598024e-2
8.284789708e0	9.751442657e-3	-7.556767920e-3	-1.420581043e-2	1.881489902e-2
8.294722708e0	3.546250070e-3	5.929419282e-3	-1.181079090e-2	1.368315330e-2
8.304655708e0	1.224859203e-2	6.672052215e-3	-1.136172473e-2	1.798980479e-2
8.314587708e0	-1.122131390e-2	-3.615191826e-3	-4.625732303e-3	1.266431589e-2
8.324520708e0	1.273765109e-3	5.287838113e-3	-1.360764027e-2	1.465440490e-2
8.334453333e0	2.693610968e-3	-1.506969086e-3	-1.899584949e-2	1.924496801e-2
8.344386333e0	5.014465363e-3	4.065770041e-3	-1.615117908e-2	1.739356014e-2
8.354319333e0	1.301008224e-2	6.098965695e-4	-1.540156603e-2	2.017033589e-2
8.364251333e0	-5.639943278e-3	3.664148552e-3	-2.573067248e-2	2.659515841e-2
8.374184333e0	4.273747051e-3	-1.025396059e-2	-2.812569201e-2	3.024009214e-2
8.384117333e0	-7.576335536e-3	7.799043646e-3	-1.749779284e-2	2.060093921e-2
8.394050333e0	5.413737117e-3	8.277012412e-3	-1.570152819e-2	1.855681739e-2
8.403983333e0	-2.151504127e-3	4.571197880e-3	-1.585121691e-2	1.663688365e-2
8.413916333e0	-3.056385874e-3	-4.152043881e-3	-2.258779407e-2	2.316871606e-2
8.423848333e0	-7.231762658e-3	-6.265917406e-3	-1.225927234e-2	1.555152309e-2
8.433781333e0	2.770000786e-3	2.189822461e-2	-1.884557605e-2	2.902345400e-2
8.443714333e0	1.091584142e-2	6.135821426e-3	-3.171880603e-2	3.410112248e-2
8.453647333e0	1.007244109e-2	6.848459970e-4	-3.351565540e-2	3.500317472e-2
8.463580333e0	4.558115877e-3	1.620892490e-2	-5.672383904e-3	1.776743104e-2
8.473512333e0	-1.409944135e-2	8.932215767e-4	-2.483312488e-2	2.857054746e-2
8.483445333e0	1.163584038e-2	-1.008392996e-2	-2.677966297e-2	3.089059360e-2
8.493378333e0	3.079841546e-3	-1.299475614e-2	-2.513367176e-2	2.846138730e-2
8.503311333e0	1.017203562e-2	-5.187119823e-4	-3.426468372e-2	3.574643928e-2
8.513244333e0	-1.122340154e-2	-1.593693344e-2	-1.944608510e-2	2.753363062e-2
8.523176333e0	2.388512791e-3	-1.669667405e-2	-1.256157339e-2	2.103038382e-2
8.533109333e0	4.354921422e-3	4.360912819e-3	-2.423787832e-2	2.500915126e-2
8.543042333e0	2.051545861e-3	-8.679748527e-3	-2.169317007e-2	2.345507413e-2
8.552975333e0	1.188319359e-2	-1.030744434e-2	-7.921807766e-3	1.761274360e-2
8.562908333e0	4.528240831e-3	3.208764656e-3	-1.705281973e-2	1.793320374e-2
8.572841333e0	1.691150098e-2	-5.060399696e-4	-8.970213532e-3	1.914992618e-2
8.582773333e0	9.476363137e-3	-8.670370141e-3	-1.974780142e-2	2.355742850e-2
8.592706333e0	1.401221506e-2	-9.305108241e-3	-1.046885490e-2	1.981222181e-2
8.602639333e0	2.878686192e-3	8.174220189e-3	-1.151784539e-2	1.441407203e-2
8.612572333e0	5.043640343e-3	3.335429966e-3	-1.076940179e-2	1.235084677e-2
8.622505333e0	4.760110626e-3	-7.910780283e-3	-1.511037469e-2	1.770769666e-2
8.632437333e0	8.250043272e-3	-1.027701598e-2	-1.047002435e-2	1.683156800e-2
8.642370333e0	1.302052386e-2	-9.334664089e-3	-3.082769036e-2	3.474214283e-2
8.652303333e0	-7.823257628e-4	-8.044156185e-3	-1.990041375e-2	2.147898857e-2
8.662236333e0	3.649036583e-3	-2.619977449e-3	-3.883720636e-3	5.938268755e-3
8.672169333e0	1.358190338e-2	5.019263620e-3	-8.224693537e-3	1.665252805e-2
8.682101333e0	1.558176420e-2	9.810394468e-3	-7.776796818e-3	1.998784090e-2
8.692034333e0	6.527885230e-4	2.910963222e-3	-1.481158197e-2	1.510903042e-2
8.701967333e0	-2.337757931e-3	1.459119676e-2	-1.091967523e-2	1.837409704e-2
8.711900333e0	5.844833940e-3	2.536357697e-3	-3.067917109e-2	3.133379538e-2
8.721833333e0	4.219976079e-3	-7.226162693e-3	-2.229543328e-2	2.381411285e-2
8.731766333e0	3.366087591e-3	-4.528988292e-4	-1.840294182e-2	1.871373642e-2
8.741698333e0	7.533383055e-3	-6.550763603e-3	-6.278740168e-3	1.179351271e-2
8.751631333e0	-3.700123204e-3	-6.258311458e-3	-2.573827386e-2	2.674539428e-2
8.761564333e0	1.837464335e-2	3.383445656e-3	-2.409169793e-2	3.048745860e-2
8.771497333e0	1.642836222e-2	2.747638612e-3	-8.973137140e-3	1.891977255e-2
8.781430333e0	-7.089669607e-3	4.496348952e-3	-1.286504388e-2	1.536196351e-2
8.791362333e0	3.873971946e-3	1.389057698e-2	-9.122241139e-3	1.706373555e-2
8.801295333e0	2.441687621e-3	1.082730293e-2	-8.224693537e-3	1.381440954e-2
8.811228333e0	5.312229681e-4	-8.074968271e-3	-8.523486257e-3	1.175317525e-2
8.821161333e0	1.174877044e-2	2.974770963e-4	-2.034889519e-2	2.349892838e-2
8.831094333e0	3.558823296e-3	3.548830496e-3	-1.840294182e-2	1.907688887e-2
8.841027333e0	1.885619925e-2	-4.902753280e-4	-1.615761101e-2	2.483676738e-2
8.850959333e0	-9.538774741e-3	-6.138525764e-4	-1.211601555e-2	1.543252641e-2
8.860892333e0	-2.562150542e-3	6.189597538e-3	-1.166753411e-2	1.345388737e-2
8.870825333e0	9.070922115e-3	-2.439216259e-3	-2.049916863e-2	2.254877643e-2
8.880758333e0	-6.236323871e-4	-1.775829543e-2	-3.284965754e-3	1.807033409e-2
8.890691333e0	5.803703574e-3	-1.027196819e-2	-2.963018060e-2	3.189269364e-2
8.900623333e0	-1.732136567e-3	-1.372461199e-2	-8.524070978e-3	1.624884788e-2
8.910556333e0	-1.837793127e-2	9.555574637e-3	-6.876910329e-3	2.182542692e-2
8.920489333e0	1.676540624e-3	2.622754877e-3	-1.675636590e-2	1.704304637e-2
8.930422333e0	1.078854685e-2	7.873449465e-3	-1.795387566e-2	2.237689882e-2
8.940355333e0	-9.265227261e-4	-3.825787520e-3	-2.289301872e-2	2.322897761e-2
8.950287333e0	-1.578371126e-2	4.229227128e-3	-1.480982780e-2	2.205318351e-2
8.960220333e0	4.642129631e-3	2.324048951e-3	-2.648496330e-2	2.698895796e-2
8.970153333e0	-1.004065713e-3	7.784603764e-3	-2.693402946e-2	2.805441403e-2
8.980086333e0	7.777707019e-3	-9.666068740e-3	-1.495951653e-2	1.943483332e-2
8.990019333e0	1.937818088e-3	1.106759151e-2	-2.049741447e-2	2.337500205e-2
8.999951333e0	8.400741551e-3	9.211018318e-3	-1.765391350e-2	2.161194065e-2
9.009884333e0	2.899012404e-3	-6.871026568e-3	-1.975014031e-2	2.111121316e-2
9.019817333e0	2.461477363e-3	5.912211109e-3	-1.750539422e-2	1.864006271e-2
9.029750333e0	-6.483918622e-3	-1.350163207e-3	-1.271535516e-2	1.433681967e-2
9.039683333e0	1.731746562e-4	1.088441378e-2	-1.511037469e-2	1.862320800e-2
9.049616333e0	5.231025332e-3	1.200168878e-2	-7.476249933e-3	1.507642109e-2
9.059548333e0	7.133450634e-3	-8.021877380e-4	-6.728391051e-3	9.838743276e-3
9.069481333e0	9.240309214e-3	3.947482696e-3	-2.753512323e-2	2.931124264e-2
9.079414333e0	6.412224564e-3	-3.188011609e-3	-2.139788568e-2	2.256434252e-2
9.089347333e0	-6.914853848e-3	4.609506279e-3	-1.002212763e-2	1.301943908e-2
9.099280333e0	5.156965549e-3	2.359388061e-3	-1.241714716e-2	1.365088090e-2
9.109212333e0	-1.373337824e-2	-8.900161148e-3	-2.528979242e-2	3.012295050e-2
9.119145333e0	-1.080247510e-2	-6.047528470e-4	-2.109909296e-2	2.371140903e-2
9.129078333e0	-3.977025410e-3	7.292989972e-3	-1.496127069e-2	1.711268695e-2
9.139011333e0	1.073049154e-2	1.345453458e-3	-1.645874262e-2	1.969375287e-2
9.148944333e0	-6.676820208e-3	5.840020836e-3	-2.349411249e-2	2.511292682e-2
9.158876333e0	1.149934900e-3	4.028498610e-3	-4.633333683e-3	6.246513615e-3
9.168809333e0	8.227123215e-3	-8.806121475e-3	-1.017181635e-2	1.577019910e-2
9.178742333e0	8.198611186e-3	8.101349263e-3	-2.454193354e-2	2.711375273e-2
9.188675333e0	-4.154428449e-3	-1.126196575e-3	-1.705691278e-2	1.759164199e-2
9.198608333e0	6.186097203e-3	-5.374235292e-3	-6.728391051e-3	1.060289818e-2
9.208540333e0	6.841028182e-3	-3.776469911e-3	-1.511095941e-2	1.701183370e-2
9.218473333e0	2.051431886e-2	-7.609360884e-3	-9.273684025e-3	2.376427712e-2
9.228406333e0	1.042732368e-2	8.651540279e-3	-1.810531855e-2	2.261373008e-2
9.238339333e0	2.564244804e-2	5.641695159e-4	-1.331527948e-2	2.889896359e-2
9.248272333e0	1.315282510e-2	1.803564532e-3	-2.334383905e-2	2.685487804e-2
9.258204333e0	8.970423096e-3	-3.812932782e-4	-1.915197015e-2	2.115211185e-2
9.268137333e0	1.197647038e-2	2.121799244e-3	-1.870231926e-2	2.230951861e-2
9.278070333e0	2.102526273e-3	1.395808035e-3	-1.660726190e-2	1.679791786e-2
9.288003333e0	5.746596720e-4	7.352974182e-3	-2.977928460e-2	3.067901977e-2
9.297936333e0	-9.010369172e-3	-5.280725523e-3	-2.079854608e-2	2.327342548e-2
9.307869333e0	-5.432886177e-3	-7.355007003e-3	-9.122825861e-3	1.291659134e-2
9.317801333e0	7.058163165e-3	-5.626533511e-3	-4.183682799e-3	9.948806380e-3
9.327734333e0	1.189810170e-3	1.845002105e-3	-1.481158197e-2	1.497339779e-2
9.337667708e0	-1.355327258e-2	6.470734407e-3	-1.241656244e-2	1.948672944e-2
9.347600708e0	8.747891430e-3	2.893997161e-3	-1.047060907e-2	1.394756173e-2
9.357533708e0	6.716403117e-3	-4.974820213e-3	-2.079971552e-2	2.241622343e-2
9.367465708e0	1.072325447e-2	-1.318382677e-3	-2.334500849e-2	2.572383604e-2
9.377398708e0	1.606453522e-2	6.604530578e-3	-2.109909296e-2	2.732875481e-2
9.387331708e0	1.693569954e-2	-1.398379439e-2	-2.723633051e-2	3.498831411e-2
9.397264708e0	1.573980119e-2	-3.095273855e-3	-1.286504388e-2	2.056286497e-2
9.407197708e0	5.271055918e-3	7.480484596e-3	-8.893615007e-4	9.194163593e-3
9.417129708e0	6.394764001e-5	-8.551150896e-3	-2.798243523e-2	2.925992058e-2
9.427062708e0	1.293757448e-2	-7.710376102e-4	-1.555768669e-2	2.024887521e-2
9.436995708e0	6.934199338e-3	7.172601284e-3	-2.813212395e-2	2.984871400e-2
9.446928708e0	-1.879988897e-3	8.773016185e-3	-2.244336784e-2	2.417033163e-2
9.456861708e0	1.485620924e-2	-6.359897694e-3	-1.450986564e-2	2.171845880e-2
9.466793708e0	8.730308670e-3	-3.049798049e-3	3.099024296e-4	9.252869670e-3
9.476726708e0	4.927563976e-3	-9.569224231e-3	-1.136523306e-2	1.565309751e-2
9.486659708e0	4.507036109e-3	-1.855586478e-3	-1.226395011e-2	1.319700905e-2
9.496592708e0	1.695700990e-2	-7.728009112e-4	-4.479551911e-3	1.755573386e-2
9.506525708e0	-2.414660237e-3	-1.559964046e-3	-7.324222326e-3	7.868183054e-3
9.516457708e0	1.218522512e-2	2.439855798e-3	-1.510745108e-2	1.956189371e-2
9.526390708e0	1.528140118e-2	-2.932122834e-3	-3.582004309e-3	1.596713253e-2
9.536323708e0	7.673046998e-3	-5.870832922e-4	-1.016772330e-2	1.275158477e-2
9.546256708e0	1.198091975e-2	4.008220648e-4	-1.016830802e-2	1.571933791e-2
9.556189708e0	-8.077022791e-3	9.005940934e-3	-1.914904654e-2	2.265019321e-2
9.566121708e0	1.707521502e-2	7.125814422e-3	-2.888524532e-4	1.850469224e-2
9.576054708e0	-1.213866552e-2	-3.847166402e-3	-4.928618073e-3	1.365427281e-2
9.585987708e0	-1.299581594e-2	4.804602284e-3	-2.513659537e-2	2.870233199e-2
9.595920708e0	-1.092756669e-2	3.685331005e-3	-1.585530996e-2	1.960571938e-2
9.605853708e0	-9.779565252e-3	-1.448638542e-3	-3.007573843e-2	3.165894016e-2
9.615786708e0	5.402971730e-3	-6.154473131e-3	-2.558624625e-2	2.686495189e-2
9.625718708e0	1.621175943e-2	-5.439696698e-3	-1.600616813e-2	2.342240086e-2
9.635651708e0	-3.568057786e-5	1.585902843e-2	-2.304270744e-2	2.797278002e-2
9.645584708e0	1.147759211e-2	1.355200949e-2	-1.645698845e-2	2.421207448e-2
9.655517708e0	5.071087424e-3	3.742154064e-3	-8.522901535e-3	1.059997619e-2
9.665449708e0	9.457877028e-4	-3.737211339e-3	-2.214457512e-2	2.247762154e-2
9.675382708e0	1.129898594e-2	6.963700368e-3	-2.439049065e-2	2.776789946e-2
9.685315708e0	7.508219471e-3	1.651830656e-2	-8.223524094e-3	1.992119875e-2
9.695248708e0	-1.122424436e-2	-4.970133305e-4	-2.648613274e-2	2.877057370e-2
9.705181708e0	5.243095492e-3	6.110614445e-3	-2.349235833e-2	2.483385912e-2
9.715114708e0	2.373392828e-2	-1.128468767e-2	-1.376142204e-2	2.966513549e-2
9.725046708e0	9.710569249e-4	-8.371234811e-3	-1.930048943e-2	2.106013808e-2
9.734979708e0	1.535472435e-2	4.374260916e-3	-2.573827386e-2	3.028795899e-2
9.744912708e0	1.958130653e-2	-7.345509846e-3	-1.286445916e-2	2.455358201e-2
9.754845708e0	9.762326244e-3	-9.229313708e-3	-8.522901535e-3	1.590984273e-2
9.764778708e0	-3.096489551e-3	6.784930886e-3	-1.001978874e-2	1.249078465e-2
9.774710708e0	1.378847911e-2	7.741471413e-3	-2.199488640e-2	2.708925181e-2
9.784643708e0	7.352346063e-3	-6.676241197e-4	-1.391111076e-2	1.574870525e-2
9.794576708e0	7.174111624e-3	2.330842685e-2	-2.835314870e-3	2.455177489e-2
9.804509708e0	1.289092238e-2	9.356266810e-3	-1.615761101e-2	2.268885193e-2
9.814442708e0	2.222311510e-2	1.451790099e-2	-2.169550896e-2	3.428310667e-2
9.824374708e0	1.207655142e-2	-7.771269372e-4	-1.346204460e-2	1.810175862e-2
9.834307708e0	6.997808365e-3	-1.330893891e-2	-7.325976491e-3	1.672624011e-2
9.844240708e0	2.936036586e-3	-2.601321177e-3	-1.488701105e-3	4.195642225e-3
9.854173708e0	1.136935809e-2	-5.718503818e-3	-1.031916618e-2	1.638440661e-2
9.864106708e0	-4.654630339e-3	-2.161436970e-3	-2.483780265e-2	2.536244929e-2
9.874038708e0	8.242738250e-3	-1.465910668e-3	-2.588503897e-2	2.720527284e-2
9.883971708e0	3.310704352e-3	4.423624207e-3	-8.672005534e-3	1.028265017e-2
9.893904708e0	8.460229547e-3	1.841828163e-2	-3.082710564e-2	3.689334661e-2
9.903837708e0	3.622081148e-3	1.835327247e-2	-1.226570427e-2	2.236983646e-2
9.913770708e0	6.222255722e-3	4.314464000e-3	-2.169550896e-2	2.297882013e-2
9.923702708e0	5.127112201e-3	1.026483733e-2	-2.379056633e-2	2.641297429e-2
9.933635708e0	4.997459330e-3	1.257748421e-2	-2.834145427e-3	1.382751203e-2
9.943568708e0	1.909125332e-3	6.087636715e-4	-3.591418326e-2	3.597004187e-2
9.953501708e0	9.423357899e-3	1.370934527e-3	-3.127383292e-2	3.269146312e-2
9.963434708e0	-4.488974265e-3	-8.544426598e-4	-9.868930578e-3	1.087551162e-2
9.973366708e0	1.332154468e-2	-1.354407007e-3	-1.974897087e-2	2.386042375e-2
9.983299708e0	1.902771111e-2	-1.083127264e-2	-8.072665930e-3	2.333534213e-2
9.993232708e0	2.528443856e-2	9.486212041e-3	-1.166519523e-2	2.941713501e-2
1.000316571e1	2.007260512e-2	5.525737563e-3	-1.785154939e-3	2.089569405e-2
1.001309871e1	2.039684236e-2	4.041202599e-3	-2.094648063e-2	2.951470053e-2
1.002303071e1	-3.685567406e-4	1.442579364e-2	-1.840177238e-2	2.338513594e-2
1.003296371e1	7.335245241e-3	2.021140797e-2	-1.525830925e-2	2.636518226e-2
1.004289671e1	2.938432117e-2	1.409452147e-2	-1.435959220e-2	3.561308403e-2
1.005282971e1	6.173051745e-3	-1.032842123e-3	-1.645523429e-2	1.760534198e-2
1.006276271e1	1.866898785e-2	-2.067302737e-2	-2.379056633e-2	3.663190159e-2
1.007269471e1	2.723489155e-4	1.178830196e-2	-5.978193283e-3	1.322032647e-2
1.008262771e1	-1.089713833e-2	-9.624594622e-3	-9.421033859e-3	1.732444297e-2
1.009256071e1	-3.669718825e-3	2.724208636e-3	-1.645581901e-2	1.707870394e-2
1.010249371e1	7.941577522e-3	2.575570587e-3	-2.199371696e-2	2.352500378e-2
1.011242671e1	2.453245008e-3	9.528663740e-3	-1.256274283e-2	1.595732907e-2
1.012235871e1	1.307079621e-2	2.352508446e-3	-8.521147370e-3	1.577941577e-2
1.013229171e1	4.609024055e-3	1.880459986e-3	-1.645464957e-2	1.719112343e-2
1.014222471e1	-1.330734634e-3	1.065375026e-2	-8.521732092e-3	1.370741285e-2
1.015215771e1	8.424961244e-3	1.885153747e-2	-2.109558463e-2	2.951921625e-2
1.016209071e1	2.729662136e-3	1.196301037e-2	-1.241363883e-2	1.745460115e-2
1.017202271e1	2.606120233e-2	6.124072177e-3	-6.426090002e-3	2.753153028e-2
1.018195571e1	3.230749502e-2	1.094746778e-2	-1.480865836e-2	3.718760073e-2
1.019188871e1	1.023999922e-2	1.200788318e-2	-2.408935905e-2	2.879833436e-2
1.020182171e1	7.861992006e-3	1.857067012e-2	-2.124527335e-2	2.929235987e-2
1.021175471e1	1.133794187e-2	6.222748510e-3	-1.166461051e-2	1.741650548e-2
1.022168671e1	2.241198474e-2	-3.815500075e-3	-2.558566153e-2	3.422690720e-2
1.023161971e1	2.649371813e-2	6.290233601e-4	-1.855029166e-2	3.234850988e-2
1.024155271e1	1.341056626e-2	1.832024027e-3	-1.585472524e-2	2.084638846e-2
1.025148571e1	1.470932308e-2	1.514686040e-2	-1.151375234e-2	2.404907604e-2
1.026141871e1	1.687601797e-3	1.581553062e-2	-1.480690420e-2	2.173070226e-2
1.027135071e1	2.316552353e-3	8.953087586e-3	-1.780067861e-2	2.005961991e-2
1.028128371e1	1.094993000e-2	2.758106042e-2	-1.151433706e-2	3.183073701e-2
1.029121671e1	-1.025343811e-3	-2.026699763e-3	-1.720250845e-2	1.735180506e-2
1.030114971e1	3.183984225e-3	-3.868622943e-3	-1.390877187e-2	1.478370502e-2
1.031108271e1	6.108117958e-3	1.523487013e-2	-1.854912221e-2	2.476853463e-2
1.032101471e1	-8.618447551e-5	1.400790502e-2	-1.450752676e-2	2.016673408e-2
1.033094771e1	-1.457546181e-2	7.758903424e-3	-1.300947011e-2	2.102120315e-2
1.034088125e1	2.679766371e-4	-4.045176879e-3	-2.618149281e-2	2.649350549e-2
1.035081425e1	2.413232694e-2	1.142125670e-4	-1.031448841e-2	2.624444550e-2
1.036074725e1	2.154488377e-2	5.914865197e-3	-1.435666859e-2	2.655713802e-2
1.037067925e1	1.557020338e-2	-4.638893106e-3	-2.318771839e-2	2.831290954e-2
1.038061225e1	8.904905159e-3	1.094713887e-2	-1.106351674e-2	1.793149709e-2
1.039054525e1	2.006951249e-2	2.534433141e-2	-2.872678578e-2	4.324752811e-2
1.040047825e1	3.220159646e-2	1.323336365e-2	-6.273477674e-3	3.537543286e-2
1.041041125e1	8.549272249e-3	9.166931226e-3	-1.241071522e-2	1.763940295e-2
1.042034325e1	8.320249260e-3	1.475881998e-2	-1.256040394e-2	2.109059180e-2
1.043027625e1	5.032233704e-3	1.250774246e-3	-5.075967908e-3	7.256256781e-3
1.044020925e1	4.153264716e-3	2.200499112e-3	-6.273477674e-3	7.838898281e-3
1.045014225e1	3.298716703e-3	5.192738632e-4	-2.064417958e-2	2.091251606e-2
1.046007525e1	1.835993510e-2	2.530630623e-2	-2.603355825e-2	4.068467165e-2
1.047000725e1	1.139530168e-2	-5.006532222e-3	-1.600499868e-2	2.027506469e-2
1.047994025e1	5.381522613e-5	3.482624483e-3	-5.526788235e-3	6.532760332e-3
1.048987325e1	-1.518362363e-2	9.664045055e-3	-1.316032827e-2	2.229642199e-2
1.049980625e1	5.048762367e-3	1.072502690e-3	-2.513484120e-2	2.565931616e-2
1.050973925e1	9.836899942e-3	1.286232127e-2	-9.118732810e-3	1.858373474e-2
1.051967125e1	-6.156863979e-3	1.342430722e-2	-2.184285879e-2	2.636720460e-2
1.052960425e1	3.023298285e-3	1.813553221e-2	-1.076530874e-2	2.130562680e-2
1.053953725e1	8.680102557e-3	9.138805205e-3	-2.064476430e-2	2.418818377e-2
1.054947025e1	3.732001093e-3	4.043308510e-3	-1.855029166e-2	1.934914718e-2
1.055940225e1	1.223875455e-2	1.110027654e-2	-1.810064077e-2	2.450788544e-2
1.056933525e1	1.485617384e-2	5.797249367e-3	-1.001686513e-2	1.883219553e-2
1.057926825e1	-5.402258530e-3	-6.711598579e-4	-3.580250144e-3	6.515600039e-3
1.058920125e1	1.189777280e-2	-1.221777081e-2	-1.226219594e-2	2.100457975e-2
1.059913425e1	-2.274501222e-3	-7.257915814e-3	-2.124351919e-2	2.256408219e-2
1.060906625e1	1.080902238e-2	1.265986143e-3	-1.465721548e-2	1.825572927e-2
1.061899925e1	2.742356247e-2	-1.037835097e-4	-8.670251369e-3	2.876170732e-2
1.062893225e1	1.830771900e-2	1.079778819e-2	-2.723223746e-2	3.454503672e-2
1.063886525e1	1.263711667e-2	1.759464649e-2	-3.142410636e-2	3.816729966e-2
1.064879825e1	6.343221138e-4	3.557071416e-3	-9.868930578e-3	1.050956290e-2
1.065873025e1	1.751671977e-2	1.395255290e-3	-1.660550773e-2	2.417695382e-2
1.066866325e1	1.357070459e-2	2.426081494e-2	-8.672005534e-3	2.911966423e-2
1.067859625e1	2.730272382e-2	1.925158752e-2	-7.772119045e-3	3.429968198e-2
1.068852925e1	1.956977426e-2	-4.755344060e-3	-1.405904531e-2	2.456106913e-2
1.069846225e1	-1.838509354e-3	2.840198209e-3	-2.378881216e-2	2.402820065e-2
1.070839425e1	1.950309773e-2	1.130804912e-2	-1.705223501e-2	2.826696862e-2
1.071832725e1	2.281715338e-2	7.197305770e-3	-9.417525530e-3	2.571212722e-2
1.072826025e1	5.493783443e-3	5.825813930e-3	-2.094355702e-2	2.242218422e-2
1.073819325e1	1.068449496e-2	1.045317249e-2	-2.333916128e-2	2.771540541e-2
1.074812625e1	1.391128092e-2	1.279981088e-2	-1.944783926e-2	2.712152922e-2
1.075805825e1	1.131439883e-2	1.800738682e-2	-8.372043371e-3	2.285547443e-2
1.076799125e1	1.246318256e-2	2.202069637e-2	-2.049624503e-2	3.256283232e-2
1.077792425e1	2.217214383e-2	1.174461229e-2	-2.842916250e-2	3.791776840e-2
1.078785725e1	2.157263977e-2	6.292184195e-3	-1.884908438e-2	2.933016111e-2
1.079779025e1	6.581897172e-3	7.557115098e-3	-2.139320791e-2	2.362415509e-2
1.080772225e1	1.566201152e-2	1.229620116e-2	3.306600451e-3	2.018486498e-2
1.081765525e1	1.574331980e-2	-2.596255112e-3	-1.989573598e-2	2.550358737e-2
1.082758825e1	3.063554994e-2	1.662177487e-2	-2.663172841e-2	4.386421410e-2
1.083752125e1	1.845982884e-2	7.020139704e-3	-2.648087025e-2	3.303458992e-2
1.084745425e1	1.193056745e-2	-4.179429864e-3	-2.333799183e-2	2.654181487e-2
1.085738625e1	2.259920870e-3	2.295820147e-2	-2.034421742e-2	3.075830684e-2
1.086731925e1	1.259538902e-2	2.493474309e-2	-2.169258535e-2	3.536882097e-2
1.087725225e1	1.611355133e-2	2.789747701e-2	-1.705223501e-2	3.645126169e-2
1.088718525e1	1.608181876e-2	-1.544898329e-4	-1.211192250e-2	2.013324188e-2
1.089711825e1	-3.922062725e-4	8.607151690e-3	-1.764982045e-2	1.964059693e-2
1.090705025e1	1.997075164e-2	5.065301307e-3	-3.591125965e-2	4.140177253e-2
1.091698325e1	-4.609932544e-3	1.089461443e-2	-2.648087025e-2	2.900311347e-2
1.092691625e1	1.059182573e-2	2.765397702e-2	-1.136230946e-2	3.171799637e-2
1.093684925e1	-3.919951104e-3	4.358080574e-3	-2.198962390e-2	2.275747004e-2
1.094678125e1	3.681669928e-3	2.486802544e-4	-1.854736805e-2	1.891088038e-2
1.095671425e1	1.332600661e-2	-8.929474885e-4	-1.989515126e-2	2.396240495e-2
1.096664725e1	1.954609532e-2	-1.555861859e-4	-2.363736928e-2	3.067245141e-2
1.097658025e1	3.072063835e-2	3.206480588e-3	-2.857651234e-2	4.207916582e-2
1.098651325e1	2.413290710e-2	3.312685210e-3	-9.115809202e-3	2.600901893e-2
1.099644525e1	1.672086233e-2	7.533369921e-3	-1.106117785e-2	2.141701555e-2
1.100637825e1	4.451837308e-3	1.668387869e-2	-8.814677596e-3	1.938734651e-2
1.101631125e1	-1.607075673e-3	9.679325474e-3	-7.018997669e-3	1.206392814e-2
1.102624425e1	1.529238641e-2	2.347621453e-2	-1.480281115e-2	3.168774130e-2
1.103617725e1	3.516135767e-3	2.515992941e-2	-1.734693468e-2	3.076201231e-2
1.104610925e1	8.888180066e-3	3.691575648e-3	-9.712225199e-3	1.367314133e-2
1.105604225e1	4.486342162e-3	-7.928116363e-3	-1.180728257e-2	1.491288760e-2
1.106597525e1	2.233051372e-3	9.386215517e-3	-2.227204442e-3	9.901918996e-3
1.107590825e1	1.778527828e-2	-2.146412367e-3	-9.111716151e-3	2.009842234e-2
1.108584125e1	2.283873326e-3	1.347381212e-3	-3.573818207e-3	4.450133714e-3
1.109577325e1	2.753216993e-2	3.800164838e-3	-1.240486801e-2	3.043587331e-2
1.110570625e1	1.580476467e-2	8.572876956e-3	-4.297703505e-4	1.798525808e-2
1.111563925e1	1.108522338e-2	2.303349808e-2	-1.001043320e-2	2.745237665e-2
1.112557225e1	1.064247153e-2	1.704449658e-2	-1.270483017e-2	2.377372023e-2
1.113550525e1	3.576770936e-3	1.462157487e-2	-7.764517665e-3	1.693728067e-2
1.114543725e1	2.098927266e-2	4.525178466e-3	-8.812338710e-3	2.320956959e-2
1.115537025e1	1.967274693e-2	1.487080787e-2	-1.300362289e-2	2.787924150e-2
1.116530325e1	1.208140049e-2	6.185161876e-3	-1.958875716e-2	2.383140517e-2
1.117523625e1	2.101000515e-3	3.785290984e-3	-1.794218123e-2	1.845709886e-2
1.118516825e1	3.121068413e-4	1.399709681e-2	-6.865215898e-3	1.559318181e-2
1.119510125e1	1.219798050e-2	-3.653792585e-3	-1.270366073e-2	1.798677081e-2
1.120503425e1	2.030518497e-2	-3.571054484e-3	-2.901914656e-2	3.559724475e-2
1.121496725e1	1.714664356e-2	4.236810235e-3	-2.333097517e-2	2.926247339e-2
1.122490025e1	1.657873274e-2	3.564704773e-3	-1.405085921e-2	2.202244637e-2
1.123483225e1	1.288911796e-2	5.691816760e-3	-2.093654037e-2	2.523618161e-2
1.124476525e1	2.191190847e-2	1.386126781e-2	-2.303218246e-2	3.468065609e-2
1.125469825e1	1.236410652e-2	4.421774112e-3	-2.078568220e-2	2.458592689e-2
1.126463125e1	2.218980881e-2	7.111639492e-3	-1.913910627e-2	3.015407801e-2
1.127456425e1	1.815590496e-2	2.843994331e-3	-1.060626447e-2	2.121834194e-2
1.128449625e1	1.448948033e-2	1.506501309e-2	-1.330066144e-2	2.477513379e-2
1.129442925e1	7.445063831e-3	9.257818884e-3	-1.434789777e-2	1.862789189e-2
1.130436225e1	1.182517368e-2	-4.452567925e-3	-1.464669049e-2	1.934387851e-2
1.131429525e1	2.015692151e-2	9.876308120e-3	-3.455470562e-2	4.120522573e-2
1.132422825e1	5.674791313e-3	6.710081957e-3	-1.913559794e-2	2.105705499e-2
1.133416025e1	1.068952106e-2	3.621897851e-3	-2.317777812e-2	2.577970914e-2
1.134409321e1	2.494398900e-2	6.413568738e-3	-1.778956890e-2	3.130184041e-2
1.135402621e1	5.987483732e-3	1.498553207e-2	-1.778898418e-2	2.401799515e-2
1.136395921e1	1.382640493e-2	6.633483432e-3	-4.615792036e-3	1.601493403e-2
1.137389121e1	1.923646698e-2	-6.220044172e-3	-1.015427470e-2	2.262387911e-2
1.138382421e1	1.805660165e-2	2.256137653e-2	-1.030396342e-2	3.067944322e-2
1.139375721e1	1.609777184e-2	2.137658446e-2	-3.568555713e-3	2.699687410e-2
1.140369021e1	1.830160455e-2	2.361457427e-3	-1.165116191e-2	2.182372068e-2
1.141362321e1	3.722910215e-3	8.520361651e-3	-1.404559672e-2	1.684444746e-2
1.142355521e1	1.086336380e-2	4.216125710e-3	-1.913559794e-2	2.240445263e-2
1.143348821e1	1.912350951e-2	1.297022067e-2	-1.434555888e-2	2.719798338e-2
1.144342121e1	1.526754944e-2	9.790121075e-3	-1.584244609e-2	2.408168671e-2
1.145335421e1	4.678143398e-3	2.066986165e-2	-1.329715312e-2	2.501884264e-2
1.146328721e1	3.980466931e-3	6.360857002e-4	-1.703878641e-2	1.750911090e-2
1.147321921e1	1.916674322e-3	2.279374396e-2	-2.691824198e-2	3.532449795e-2
1.148315221e1	1.179087839e-2	2.195154848e-2	-2.796664774e-2	3.745702444e-2
1.149308521e1	1.720530758e-2	1.183570552e-2	-3.754672587e-2	4.296350960e-2
1.150301821e1	2.260024224e-2	-5.384088764e-3	-2.661944926e-2	3.533205966e-2
1.151295121e1	1.657626937e-2	-6.192416078e-3	-2.212878764e-2	2.833376017e-2
1.152288321e1	1.960426598e-2	-2.763540298e-3	-1.629092753e-2	2.563900777e-2
1.153281621e1	1.487218516e-2	1.008551967e-2	-2.991201639e-2	3.489453142e-2
1.154274921e1	1.388740898e-2	7.181847193e-3	-1.748785257e-2	2.345770758e-2
1.155268221e1	7.819528886e-3	1.598996494e-2	-2.212820292e-2	2.839861573e-2
1.156261421e1	3.177196544e-3	1.473112794e-2	-4.009143412e-2	4.283017392e-2
1.157254721e1	1.475702471e-2	2.633119980e-3	-2.078158915e-2	2.562376917e-2
1.158248021e1	1.210388258e-2	1.579166211e-2	-1.569217265e-2	2.534018248e-2
1.159241321e1	1.006031383e-2	1.637730644e-2	-7.459293008e-3	2.061715627e-2
1.160234621e1	1.023295630e-2	-9.105256805e-4	-5.962405801e-3	1.187824627e-2
1.161227821e1	6.266967507e-3	6.457797443e-3	-1.539337993e-2	1.783070877e-2
1.162221121e1	5.228251902e-3	1.968963076e-2	-6.261783242e-3	2.131258095e-2
1.163214421e1	2.578364917e-2	4.972097604e-3	-1.254812479e-2	2.910281352e-2
1.164207721e1	1.030336614e-2	1.047666642e-2	-1.898590922e-2	2.400801204e-2
1.165200921e1	1.295114013e-3	8.030506591e-3	1.071794629e-3	8.204577999e-3
1.166194221e1	2.001701774e-2	1.142292407e-2	-1.023262739e-3	2.306970438e-2
1.167187521e1	-3.013837102e-3	1.867680622e-2	-1.105299175e-2	2.191061230e-2
1.168180821e1	-7.866109611e-4	6.575824404e-3	-1.090213358e-2	1.275604720e-2
1.169174121e1	1.896021459e-2	3.072803188e-4	-1.165116191e-2	2.225609428e-2
1.170167321e1	5.407102468e-3	1.505690007e-2	-1.973376811e-2	2.540410598e-2
1.171160621e1	7.323588354e-4	9.918321278e-3	-2.557104349e-2	2.743697709e-2
1.172153921e1	2.607740323e-2	3.422653978e-3	-3.110952616e-2	4.073755193e-2
1.173147221e1	1.799026544e-2	2.958257147e-3	-2.317602396e-2	2.948777751e-2
1.174140521e1	3.695909383e-3	1.828760549e-2	-2.467291117e-2	3.093297280e-2
1.175133721e1	-3.449914622e-3	1.051043409e-2	-1.000341654e-2	1.491440505e-2
1.176127021e1	1.241930675e-2	1.325589370e-2	-2.137917459e-2	2.805400157e-2
1.177120321e1	1.563279486e-2	1.736910841e-3	-3.290520608e-2	3.647127255e-2
1.178113621e1	6.679999061e-3	8.666980583e-3	-3.185796976e-2	3.368485086e-2
1.179106921e1	1.986931844e-2	-7.769665956e-3	-2.212761819e-2	3.073742038e-2
1.180100121e1	2.483258812e-2	-1.432142998e-3	-1.554072976e-2	2.932955417e-2
1.181093421e1	-3.731163482e-5	-4.711439693e-4	-1.748668313e-2	1.749306879e-2
1.182086721e1	-5.709621646e-3	6.487134020e-3	-6.110340357e-3	1.058390034e-2
1.183080021e1	8.794286574e-3	-5.082952590e-3	-1.419294655e-2	1.745324082e-2
1.184073221e1	8.907878302e-4	-3.968861578e-3	-2.182648659e-2	2.220227200e-2
1.185066521e1	-4.686708369e-3	-3.949515517e-3	-8.694809675e-4	6.190307368e-3
1.186059821e1	-2.005178983e-3	-1.507969508e-3	2.273982167e-3	3.386105386e-3
1.187053121e1	-4.827076734e-4	8.111458551e-4	-2.227555275e-2	2.229554248e-2
1.188046421e1	-4.114126129e-4	-2.931793928e-3	-1.523959816e-2	1.552449767e-2
1.189039621e1	2.528711992e-4	4.633342819e-3	2.124293447e-3	5.103374587e-3
1.190032921e1	-2.155871266e-3	1.023604893e-2	-3.414773941e-3	1.100387021e-2
1.191026221e1	2.020740171e-2	1.297952597e-2	-7.756331563e-3	2.523822215e-2
1.192019521e1	1.348310714e-2	6.533180843e-3	-2.068160176e-3	1.512461294e-2
1.193012721e1	1.038934191e-2	1.077866597e-2	-8.803567886e-3	1.736723562e-2
1.194006021e1	2.303728592e-3	3.864749162e-3	-2.526991189e-2	2.566733134e-2
1.194999321e1	1.240722916e-3	9.126580870e-3	-1.763578713e-2	1.989610161e-2
1.195992621e1	1.998134059e-2	9.071489135e-3	-3.110718727e-2	3.806839879e-2
1.196985921e1	1.446444580e-2	1.150245534e-2	-2.092893898e-2	2.792037174e-2
1.197979121e1	1.116155239e-2	1.485324338e-2	-8.804152608e-3	2.055996580e-2
1.198972421e1	2.233085776e-3	-9.602155932e-3	-1.868360817e-2	2.112499195e-2
1.199965721e1	1.991779780e-3	-9.414300425e-3	-1.913208961e-2	2.141572068e-2
1.200959021e1	1.230308648e-2	9.337825240e-3	-1.853333473e-2	2.412561737e-2
1.201952321e1	2.105437318e-2	1.312693062e-2	-3.200473487e-2	4.049575276e-2
1.202945521e1	4.300340462e-3	2.213289439e-2	-2.796313941e-2	3.592067800e-2
1.203938821e1	8.004019390e-3	5.054255552e-3	-2.302341163e-2	2.489351941e-2
1.204932121e1	5.482644041e-3	-3.853178071e-4	-3.215442359e-2	3.262077271e-2
1.205925421e1	1.413185000e-2	1.525023735e-2	-3.080664039e-2	3.716622143e-2
1.206918621e1	1.374826580e-2	-3.956646379e-4	-3.769290626e-2	4.012388996e-2
1.207911921e1	4.059607910e-3	1.432908618e-2	-1.613773048e-2	2.195972386e-2
1.208905221e1	1.114511966e-2	-8.031959259e-3	-1.224640846e-2	1.840381976e-2
1.209898521e1	1.906443779e-2	6.783976145e-3	-6.558237076e-3	2.127170877e-2
1.210891821e1	1.161250862e-2	1.225006297e-2	-9.401738048e-3	1.932115622e-2
1.211885021e1	-4.430617740e-3	6.382660721e-3	-9.850804210e-3	1.254619763e-2
1.212878321e1	-8.979316688e-3	-2.871174747e-3	-1.134769142e-2	1.475269037e-2
1.213871621e1	9.760398490e-3	2.195565980e-2	-7.157576680e-3	2.507084522e-2
1.214864921e1	7.291381988e-3	2.798335799e-3	-2.217848897e-3	8.118730705e-3
1.215858121e1	1.058598537e-2	-8.870143918e-3	-3.115981221e-3	1.415810292e-2
1.216851421e1	2.150931854e-2	1.231986411e-2	3.020086884e-3	2.497099838e-2
1.217844721e1	-7.201344003e-3	5.168390460e-4	-1.928353250e-2	2.059080144e-2
1.218838021e1	1.367422315e-2	8.569930508e-3	3.256899118e-4	1.614107065e-2
1.219831321e1	7.816895355e-3	1.110317730e-3	-7.308434844e-3	1.075871174e-2
1.220824521e1	6.217530555e-3	-1.704783132e-3	-1.479345560e-2	1.613723335e-2
1.221817821e1	1.043751862e-2	3.475260646e-3	-1.703820169e-2	2.028101448e-2
1.222811121e1	4.229254251e-3	2.864770219e-3	-1.359536111e-2	1.452333790e-2
1.223804421e1	-7.583891806e-3	5.305169625e-3	-1.284808695e-2	1.583456908e-2
1.224797621e1	7.777882321e-3	1.363909189e-2	-1.180085063e-2	1.964129213e-2
1.225790921e1	-4.459591721e-3	2.994212955e-3	-2.467408061e-2	2.525200039e-2
1.226784221e1	2.092909659e-2	1.273047569e-2	-1.569334209e-2	2.909249184e-2
1.227777521e1	2.599039849e-2	1.728313150e-2	-3.081307232e-2	4.385946733e-2
1.228770821e1	4.213330581e-3	1.885663551e-2	-3.111303449e-2	3.662438767e-2
1.229764021e1	1.595688935e-2	8.055718141e-3	-2.946645856e-2	3.446431622e-2
1.230757321e1	1.527288160e-2	1.691997373e-2	-3.066396832e-2	3.820766123e-2
1.231750621e1	1.920925916e-2	-7.408239506e-4	-2.796957135e-2	3.393878871e-2
1.232743921e1	-2.860691729e-4	1.517471233e-3	-6.413810849e-3	6.597084517e-3
1.233737221e1	2.729670986e-2	9.893872607e-3	-1.524427593e-2	3.279309429e-2
1.234730421e1	2.968653999e-2	6.638613450e-3	-1.389766216e-2	3.344408556e-2
1.235723721e1	6.609016489e-3	9.343941975e-3	-2.946587384e-2	3.161053735e-2
1.236717021e1	6.053687461e-3	3.807757082e-3	-2.063423932e-2	2.183845182e-2
1.237710321e1	1.621635041e-2	5.752303465e-3	-4.617546201e-3	1.781518309e-2
1.238703521e1	9.635646088e-3	7.329914225e-3	2.866305113e-3	1.244142368e-2
1.239696821e1	9.705649365e-3	7.845620373e-3	-2.777427435e-4	1.248320991e-2
1.240690121e1	1.257654317e-2	4.573998149e-3	-1.389941633e-2	1.929467987e-2
1.241683421e1	4.776258135e-3	2.682570065e-3	1.469171405e-2	1.567977314e-2
1.242676721e1	-2.747885862e-4	-6.042823289e-3	-5.515678525e-3	8.186203739e-3
1.243669921e1	9.518983858e-3	7.381890491e-3	-4.318168759e-3	1.279648164e-2
1.244663221e1	2.899680609e-2	1.613822384e-2	-1.584361553e-2	3.677332165e-2
1.245656521e1	8.011033193e-3	1.707649182e-2	-6.862877011e-3	2.007192832e-2
1.246649821e1	-1.976603286e-3	2.362888624e-2	6.010937691e-3	2.446145126e-2
1.247643021e1	5.313353443e-3	1.603724060e-2	-1.629326642e-2	2.347115978e-2
1.248636321e1	-3.427923610e-3	1.944313865e-2	-2.467525005e-2	3.160149151e-2
1.249629621e1	1.778700389e-2	1.424217737e-2	-9.256727099e-3	2.459479864e-2
1.250622921e1	1.222381560e-2	2.298170454e-3	-3.081131816e-2	3.322710613e-2
1.251616221e1	5.769934191e-3	2.133596915e-2	-2.332688212e-2	3.213501439e-2
1.252609421e1	1.101231705e-2	1.482829222e-2	-1.599213481e-2	2.443149100e-2
1.253602721e1	6.013948664e-3	5.669245594e-3	-3.365481913e-2	3.465479440e-2
1.254596021e1	1.333879397e-2	-1.823532316e-2	-2.452439189e-2	3.334510808e-2
1.255589321e1	3.067327362e-2	-9.619368673e-3	-2.452380717e-2	4.043264877e-2
1.256582521e1	1.835153543e-2	1.183706225e-2	-2.512197733e-2	3.328676374e-2
1.257575821e1	2.038524386e-2	9.722503508e-3	-3.081014872e-2	3.820144638e-2
1.258569121e1	8.551531193e-3	1.896969234e-3	-1.973376811e-2	2.159047896e-2
1.259562421e1	-6.897071232e-3	7.728041089e-3	-1.883446634e-2	2.149486759e-2
1.260555721e1	2.207667661e-3	7.997707366e-3	-1.943322122e-2	2.113024388e-2
1.261548921e1	1.654504073e-3	4.411313077e-3	-4.314660430e-3	6.388533589e-3
1.262542221e1	2.316721202e-2	1.040914478e-2	-1.075127542e-2	2.758006402e-2
1.263535521e1	2.979966934e-3	-9.439416043e-4	-4.314660430e-3	5.327994304e-3
1.264528821e1	2.041003971e-2	7.120355498e-5	-8.805322051e-3	2.222855117e-2
1.265522021e1	4.177852143e-3	4.580018953e-3	2.631247044e-5	6.199331778e-3
1.266515321e1	5.565086355e-3	1.675291238e-2	2.721294165e-3	1.786157052e-2
1.267508621e1	-9.644503706e-3	9.872297295e-3	1.523784399e-3	1.388526645e-2
1.268501921e1	4.730987609e-3	2.427256876e-2	-1.434380472e-2	2.858818937e-2
1.269495221e1	2.057638043e-3	8.926738570e-3	-1.045189798e-2	1.389829872e-2
1.270488421e1	-2.410482390e-3	1.992469797e-2	-7.159330845e-3	2.130868444e-2
1.271481721e1	3.951265970e-3	1.227124542e-2	-1.105006814e-2	1.697939849e-2
1.272475021e1	-2.096892332e-3	-3.210847727e-3	-1.748668313e-2	1.790225091e-2
1.273468321e1	8.451599194e-3	4.149462883e-3	-6.110340357e-3	1.122425189e-2
1.274461521e1	7.057919911e-3	1.893821787e-3	-1.919056177e-3	7.555367036e-3
1.275454821e1	7.589536310e-3	9.989648173e-3	-2.676738381e-2	2.956157926e-2
1.276448121e1	2.362653594e-2	-5.614948715e-3	-2.107921243e-2	3.215702172e-2
1.277441421e1	6.608235909e-3	4.601068930e-3	-1.838481545e-2	2.007087583e-2
1.278434721e1	9.397856844e-3	2.517130408e-3	-1.179851174e-2	1.529249941e-2
1.279427921e1	1.522257728e-2	1.674130931e-3	-1.913267434e-2	2.450691332e-2
1.280421221e1	2.163425024e-2	3.894693302e-3	-2.287489235e-2	3.172491323e-2
1.281414521e1	1.214823805e-2	1.652239047e-2	-8.055124283e-3	2.203302299e-2
1.282407821e1	1.707179120e-2	-4.029288897e-3	-1.224640846e-2	2.139289004e-2
1.283401021e1	1.041354847e-2	2.121550737e-2	-8.952671885e-3	2.527231842e-2
1.284394321e1	3.748964871e-3	1.163933043e-2	-7.455784678e-3	1.432192291e-2
1.285387621e1	1.101623652e-2	4.759980720e-3	-1.767613292e-3	1.213010058e-2
1.286380921e1	3.081404762e-2	9.558498245e-3	-1.568866432e-2	3.587484645e-2
1.287374121e1	1.434000060e-2	1.455621396e-2	-1.898123145e-2	2.788917585e-2
1.288367421e1	9.217381733e-3	1.679084620e-2	5.416860580e-3	1.990565298e-2
1.289360721e1	2.054870894e-3	1.311089189e-2	3.171529770e-3	1.364465396e-2
1.290354021e1	1.716952421e-2	9.353580745e-3	-1.119858742e-2	2.253198603e-2
1.291347321e1	8.094061943e-3	3.256985913e-3	1.375849843e-3	8.832596377e-3
1.292340521e1	8.113526775e-3	1.495808213e-2	-2.721469581e-2	3.209693452e-2
1.293333821e1	1.561902506e-3	5.871509006e-3	-1.778489113e-2	1.879405517e-2
1.294327121e1	6.848753473e-3	1.375941206e-2	-3.414189219e-3	1.574431746e-2
1.295320421e1	1.746749239e-2	9.031728068e-3	-2.092718482e-2	2.871641459e-2
1.296313621e1	1.746358663e-2	-9.309183019e-3	-4.611698985e-3	2.032007662e-2
1.297306921e1	1.589735967e-2	3.522476912e-3	-1.553897560e-2	2.250763538e-2
1.298300221e1	1.033668613e-2	4.885161384e-3	-1.883212745e-2	2.203090798e-2
1.299293521e1	1.046220712e-2	1.315499268e-2	-2.422092140e-2	2.948159839e-2
1.300286821e1	5.896013065e-3	1.163190264e-2	-3.415358663e-3	1.348068262e-2
1.301280021e1	1.402533132e-2	9.222557433e-3	-2.586808205e-2	3.083704190e-2
1.302273321e1	2.690213986e-3	1.352704919e-2	-1.793574929e-2	2.262541522e-2
1.303266621e1	3.139175024e-2	5.240507643e-3	-1.853391945e-2	3.682948648e-2
1.304259921e1	1.075609252e-2	8.359764218e-3	-1.434263527e-2	1.978106091e-2
1.305253121e1	5.915468762e-3	5.306878109e-3	-3.544932961e-2	3.632919895e-2
1.306246421e1	1.864321214e-2	8.470468456e-3	-3.260582864e-2	3.850270453e-2
1.307239721e1	1.828165778e-2	4.194253469e-3	-1.599096537e-2	2.464795624e-2
1.308233021e1	2.721394892e-2	4.255717755e-3	-2.497170389e-2	3.717924346e-2
1.309226221e1	1.481645617e-2	5.769735477e-3	-3.006112039e-2	3.400717836e-2
1.310219521e1	2.714288013e-2	1.095673653e-2	-1.060158670e-2	3.113165041e-2
1.311212821e1	5.983856631e-3	1.269574414e-2	-7.607227564e-3	1.596428422e-2
1.312206121e1	3.515352046e-3	-3.739477135e-5	-1.000224710e-2	1.060207741e-2
1.313199421e1	1.585792865e-2	6.302850796e-3	-7.606642842e-3	1.868317009e-2
1.314192621e1	6.496579215e-3	1.170334374e-2	-2.217848897e-3	1.356807466e-2
1.315185921e1	1.910620541e-2	-2.378583374e-4	1.523784399e-3	1.916834840e-2
1.316179221e1	4.417441519e-3	1.290890256e-2	-2.616804421e-2	2.951135532e-2
1.317172521e1	1.809848690e-2	9.579543653e-3	-9.401738048e-3	2.253254453e-2
1.318165721e1	3.876623750e-3	-6.645049956e-3	-1.134827614e-2	1.371015215e-2
1.319159021e1	1.164480649e-2	-4.110304811e-3	-2.122773170e-2	2.455835331e-2
1.320152321e1	1.937698060e-2	1.643926408e-3	-1.239551246e-2	2.306119252e-2
1.321145621e1	-2.789452485e-3	4.856053214e-3	-2.287372291e-2	2.354929931e-2
1.322138921e1	-4.810652211e-3	1.748115112e-2	-8.952087164e-3	2.022060542e-2
1.323132121e1	4.772793202e-3	1.362146802e-2	-1.344157934e-2	1.972308295e-2
1.324125421e1	3.853164823e-2	9.166976907e-3	-2.541609228e-2	4.706058996e-2
1.325118721e1	2.091374308e-2	6.585760103e-3	-1.882978857e-2	2.890186539e-2
1.326112021e1	1.443215934e-2	1.497575625e-2	-1.194410741e-2	2.398379037e-2
1.327105221e1	1.196313370e-2	1.583706025e-2	-2.915831029e-2	3.527231357e-2
1.328098521e1	1.481013273e-2	-2.406015038e-3	-2.706266820e-2	3.094377078e-2
1.329091821e1	5.504810355e-3	2.307512295e-3	-1.912858129e-2	2.003821779e-2
1.330085121e1	1.384505321e-2	9.928416861e-3	-2.287079930e-2	2.851898351e-2
1.331078321e1	2.097338239e-2	2.091987580e-3	-2.811048925e-2	3.513486569e-2
1.332071621e1	1.191831000e-2	1.239659968e-3	-1.254227757e-2	1.734622716e-2
1.333064921e1	1.454322446e-2	-4.291317249e-3	-1.523725927e-2	2.149639159e-2
1.334058158e1	7.265229688e-4	1.004844924e-2	-3.262161613e-3	1.058965845e-2
1.335051458e1	3.540427408e-3	1.401327715e-2	-1.972850561e-2	2.445650213e-2
1.336044658e1	5.528262030e-3	-4.742795387e-3	3.291982412e-4	7.291375771e-3
1.337037958e1	4.957742803e-3	3.294170550e-3	-6.257690191e-3	8.636518966e-3
1.338031258e1	-3.951142487e-4	-2.026946442e-3	-1.643710792e-2	1.656632560e-2
1.339024558e1	2.411058033e-2	4.551084372e-3	-1.793341041e-2	3.039144059e-2
1.340017758e1	-2.179358915e-3	1.574353678e-3	-2.365198731e-3	3.580832281e-3
1.341011058e1	1.020016849e-2	1.536931498e-3	-8.652125001e-3	1.346346399e-2
1.342004358e1	7.810401177e-3	8.341034856e-3	-1.763286352e-2	2.101173731e-2
1.342997658e1	5.004783196e-3	2.127669757e-2	-7.154068351e-3	2.299840012e-2
1.343990958e1	1.350875380e-2	-8.916318649e-4	-2.496702611e-2	2.840129979e-2
1.344984158e1	1.180664988e-2	2.406707567e-2	-1.628566504e-2	3.136628761e-2
1.345977458e1	1.197415091e-2	2.528827123e-2	-1.538753271e-2	3.193200768e-2
1.346970758e1	1.011926564e-2	1.798529074e-2	-2.002846777e-2	2.875777706e-2
1.347964058e1	1.892355986e-2	9.500176837e-3	-2.122597754e-2	2.998160436e-2
1.348957258e1	1.165871761e-2	-3.943764232e-3	-2.347130835e-2	2.650247702e-2
1.349950558e1	1.160623885e-2	-1.497196470e-2	-2.167562842e-2	2.878710431e-2
1.350943858e1	2.533624809e-2	7.494741753e-3	-1.508932471e-2	3.042670441e-2
1.351937158e1	1.525644659e-2	4.752466134e-3	-1.568866432e-2	2.239373316e-2
1.352930358e1	-3.768879665e-3	5.246313745e-3	-2.227496803e-2	2.319272434e-2
1.353923658e1	6.096159717e-3	1.088397981e-2	-1.179675758e-2	1.716938173e-2
1.354916958e1	1.681833153e-2	1.056886970e-2	-1.628800392e-2	2.568766930e-2
1.355910258e1	2.463664244e-2	-3.924765349e-3	-1.853391945e-2	3.107851515e-2
1.356903458e1	1.267144051e-2	6.110258130e-3	-1.748609841e-2	2.244246637e-2
1.357896758e1	8.846797311e-3	2.246719524e-3	-1.075010598e-2	1.410242354e-2
1.358890058e1	1.735231823e-2	7.674187319e-3	-2.422209084e-2	3.076858436e-2
1.359883358e1	1.070618334e-2	1.001305074e-2	-5.660689473e-3	1.571390951e-2
1.360876658e1	4.788965550e-3	1.385191684e-3	-1.768782735e-3	5.289757972e-3
1.361869858e1	1.446926290e-2	5.265001995e-3	-4.215842485e-4	1.540316682e-2
1.362863158e1	7.327747215e-3	1.229918415e-2	-6.559991241e-3	1.574799337e-2
1.363856458e1	7.807625463e-3	1.513241595e-2	-2.347540140e-2	2.900074997e-2
1.364849758e1	1.498125972e-2	1.066907636e-2	-1.195053935e-2	2.193359806e-2
1.365842958e1	3.262768604e-3	1.748922758e-2	-2.670423388e-3	1.799027241e-2
1.366836258e1	1.367998129e-2	-1.120860991e-3	-9.854897261e-3	1.689725473e-2
1.367829558e1	1.173192658e-2	6.355786370e-4	-1.778898418e-2	2.131877153e-2
1.368822858e1	2.575330531e-2	-7.193902507e-4	-2.482435405e-2	3.577707102e-2
1.369816058e1	1.048147324e-2	-4.798572343e-3	-2.242933452e-2	2.521829941e-2
1.370809358e1	8.418288908e-3	-3.997832704e-3	-1.943556011e-2	2.155437893e-2
1.371802658e1	1.580503761e-2	1.981094222e-2	-2.759885788e-4	2.534460130e-2
1.372795958e1	3.246020100e-3	8.147715856e-3	-1.195170879e-2	1.482448189e-2
1.373789258e1	8.917845549e-3	2.563210578e-2	-2.183057964e-2	3.482968595e-2
1.374782458e1	7.545478911e-3	1.437045523e-2	-3.006345928e-2	3.416512577e-2
1.375775758e1	1.606383972e-2	1.619876536e-2	-2.078217387e-2	3.086009878e-2
1.376769058e1	1.700128086e-2	1.554561767e-2	-2.811750591e-2	3.634974440e-2
1.377762358e1	5.760849308e-3	6.254921900e-4	-2.572248638e-2	2.636711836e-2
1.378755558e1	-2.232364867e-3	5.982386833e-3	-1.030454814e-2	1.212254584e-2
1.379748858e1	1.403249416e-2	1.687135505e-2	-1.928587139e-2	2.921469405e-2
1.380742158e1	1.582989856e-2	7.279171357e-3	-1.045365214e-2	2.031873193e-2
1.381735458e1	4.119431378e-3	3.926323084e-3	-1.772291064e-3	5.960431482e-3
1.382728758e1	-3.281273271e-3	1.638451496e-2	-1.015427470e-2	1.955321916e-2
1.383721958e1	1.444159483e-2	3.844484906e-3	-1.060334086e-2	1.832404330e-2
1.384715258e1	9.919698571e-3	2.779090237e-3	-1.075302958e-2	1.489131987e-2
1.385708558e1	-9.049574067e-4	4.341539349e-3	-1.015485942e-2	1.108102350e-2
1.386701858e1	-2.358887564e-4	3.351400173e-3	-1.180202007e-2	1.227090887e-2
1.387695058e1	1.565710077e-2	2.573589843e-2	-1.539396465e-2	3.382980077e-2
1.388688358e1	-3.950220152e-3	6.228568316e-3	-2.482376933e-2	2.589630913e-2
1.389681658e1	-4.831987125e-3	1.818164298e-3	-1.838773906e-2	1.909876354e-2
1.390674958e1	3.447065532e-3	-3.648402183e-3	-4.166725874e-3	6.523396645e-3
1.391668158e1	2.716371426e-4	-3.644089862e-3	-6.561745405e-3	7.510637817e-3
1.392661458e1	1.827525097e-2	1.487969746e-2	-2.721878886e-2	3.600350902e-2
1.393654758e1	1.564020438e-2	-2.823396600e-3	-3.418282270e-3	1.625645149e-2
1.394648058e1	8.682288411e-3	-8.396496610e-3	-1.539396465e-2	1.956674309e-2
1.395641258e1	9.015937731e-3	-2.858457053e-3	-1.299952984e-2	1.607624601e-2
1.396634558e1	3.167407883e-4	2.058845744e-3	-2.332863629e-2	2.342145259e-2
1.397627858e1	2.673910019e-3	4.250304513e-3	-1.659264386e-2	1.733582168e-2
1.398621158e1	1.426574210e-2	1.219663861e-2	-3.171120465e-2	3.684928617e-2
1.399614358e1	1.183172439e-2	9.915461624e-4	-1.659205914e-2	2.040267855e-2
1.400607658e1	1.142669963e-2	1.417988168e-2	-1.614182353e-2	2.433509761e-2
1.401600958e1	1.138056145e-2	1.443503955e-2	-3.410447001e-2	3.874277250e-2
1.402594258e1	4.729087835e-3	8.555353582e-3	-1.943439066e-2	2.175439926e-2
1.403587558e1	3.236863725e-2	6.861319277e-3	-1.629151225e-2	3.688115713e-2
1.404580758e1	2.724288579e-2	9.830507976e-3	-1.763988018e-2	3.391134155e-2
1.405574058e1	2.728010468e-3	2.273223856e-3	-1.195170879e-2	1.246807647e-2
1.406567358e1	1.236436348e-2	5.376615291e-3	9.215211868e-4	1.351423980e-2
1.407560658e1	-6.683968201e-3	1.097670386e-2	-6.412641406e-3	1.436264002e-2
1.408553858e1	4.003969140e-3	6.585362675e-3	-4.915754199e-3	9.141302411e-3
1.409547158e1	1.138769003e-2	6.685272404e-3	-1.928528666e-2	2.337294661e-2
1.410540458e1	-1.686334710e-3	1.407209191e-2	-2.048338115e-2	2.490856076e-2
1.411533758e1	1.482054237e-2	6.051187548e-3	-5.747812986e-4	1.601860545e-2
1.412526958e1	7.335907050e-3	-8.164531169e-3	-1.023847461e-3	1.102376365e-2
1.413520258e1	-9.098901955e-3	3.448272091e-3	-3.269762993e-3	1.026508389e-2
1.414513558e1	1.769957774e-2	3.454882186e-4	-1.180318952e-2	2.127697575e-2
1.415506858e1	9.300098707e-3	6.488312599e-3	3.614748716e-3	1.190195130e-2
1.416500058e1	1.308195045e-2	-3.975841692e-3	-7.911282778e-3	1.579661799e-2
1.417493358e1	1.538346250e-2	-3.789498238e-4	-1.180260479e-2	1.939319472e-2
1.418486658e1	1.640106303e-2	6.891765911e-3	-1.015544415e-2	2.048473460e-2
1.419479958e1	1.376750451e-2	-9.106851085e-3	-2.587275982e-2	3.069004102e-2
1.420473258e1	2.531164867e-2	6.223004325e-3	-1.359886944e-2	2.939956788e-2
1.421466458e1	3.154503409e-2	2.636899657e-2	-2.273046613e-2	4.697964715e-2
1.422459758e1	1.368954925e-2	1.777654057e-2	-1.330066144e-2	2.608288229e-2
1.423453058e1	2.312143929e-2	-2.798532229e-4	-2.437762678e-2	3.359982083e-2
1.424446358e1	2.298988607e-2	-2.498921813e-3	-2.946762800e-2	3.745825105e-2
1.425439558e1	6.683205893e-3	7.838247400e-3	-2.123474836e-2	2.360122669e-2
1.426432858e1	1.308833271e-3	1.232829232e-2	-2.392914534e-2	2.695002472e-2
1.427426158e1	3.711597508e-3	3.797606681e-3	-1.569626570e-2	1.657016987e-2
1.428419458e1	1.837627304e-2	9.038383844e-3	-2.707260847e-2	3.394563186e-2
1.429412658e1	1.740142913e-2	1.601963500e-3	-4.918093085e-3	1.815388835e-2
1.430405958e1	2.159011061e-2	5.625409749e-3	-1.225284040e-2	2.545408040e-2
1.431399258e1	3.817831538e-3	4.676561966e-3	-3.350922346e-2	3.404870227e-2
1.432392558e1	5.900796476e-3	-5.540369307e-3	-1.854093611e-2	2.023070446e-2
1.433385758e1	2.815099721e-2	1.657830447e-2	-5.668290854e-3	3.315793034e-2
1.434379108e1	1.387284804e-2	1.974548538e-2	-1.090739608e-2	2.648228455e-2
1.435372408e1	8.742194963e-3	4.532272783e-3	-9.260235429e-3	1.351737510e-2
1.436365708e1	3.902432868e-3	9.907695791e-4	-1.449992537e-2	1.504853623e-2
1.437359008e1	6.455987889e-3	1.768082896e-2	-1.958934188e-2	2.716677765e-2
1.438352208e1	1.322349419e-2	1.209908147e-2	-4.470781088e-3	1.847258657e-2
1.439345508e1	1.747583951e-2	2.376924226e-2	-1.749369979e-2	3.429885387e-2
1.440338808e1	1.631213054e-2	1.552102282e-3	-1.165525496e-2	2.010819714e-2
1.441332108e1	1.471829547e-4	3.478430933e-3	-9.409924150e-3	1.003333529e-2
1.442325308e1	2.134220466e-2	6.924505751e-3	-6.865215898e-3	2.346422103e-2
1.443318608e1	-3.525907298e-3	1.255324567e-2	-1.135646224e-2	1.729118948e-2
1.444311908e1	1.206985795e-2	1.092983934e-2	-1.075770736e-2	1.951591982e-2
1.445305208e1	7.179452918e-3	1.132290014e-2	-4.321092367e-3	1.408632141e-2
1.446298408e1	7.747473374e-3	2.074942033e-2	-2.557689071e-2	3.383399364e-2
1.447291708e1	1.833057339e-2	9.461425329e-3	-2.288190901e-2	3.080763299e-2
1.448285008e1	1.142762011e-2	-1.911500478e-3	-1.375089705e-2	1.798142111e-2
1.449278308e1	1.974808922e-2	8.323205416e-3	-1.659556746e-2	2.710490058e-2
1.450271508e1	4.205952183e-3	1.989624761e-3	-1.015836775e-2	1.117323032e-2
1.451264808e1	5.860551187e-3	7.290609973e-4	-2.258311629e-2	2.334255195e-2
1.452258108e1	2.751489552e-3	2.342778314e-3	-1.045832992e-2	1.106507883e-2
1.453251408e1	1.603796579e-2	8.214876610e-3	-2.348241806e-2	2.959940037e-2
1.454244608e1	1.490455498e-2	3.464045869e-3	-2.198494613e-2	2.678587742e-2
1.455237908e1	1.391067336e-2	-4.878825378e-3	-1.195580184e-2	1.898027840e-2
1.456231208e1	-5.433232784e-3	1.124912472e-2	-1.225517929e-2	1.750006414e-2
1.457224508e1	6.060757224e-3	1.632597428e-2	-7.014904618e-3	1.877442678e-2
1.458217708e1	1.205727844e-2	1.727082037e-2	-3.246198714e-2	3.869676742e-2
1.459211008e1	3.270750853e-3	6.832645079e-3	6.157118082e-3	9.761810948e-3
1.460204308e1	2.030103253e-2	3.290452086e-3	-1.464961410e-2	2.525015228e-2
1.461197608e1	1.882455005e-2	1.205613184e-2	-1.405144393e-2	2.640373224e-2
1.462190908e1	1.364576366e-2	4.230780294e-3	-1.075829208e-2	1.788427287e-2
1.463184108e1	1.509281020e-2	-7.233786914e-3	-7.165178061e-3	1.820605310e-2
1.464177408e1	1.767550708e-2	9.363214946e-3	-7.913621664e-3	2.151089846e-2
1.465170708e1	1.388690306e-2	9.688484590e-3	-1.854152083e-2	2.510977509e-2
1.466164008e1	5.820269353e-3	2.485427535e-3	-1.764338851e-2	1.874412024e-2
1.467157208e1	2.076279583e-2	-5.892225509e-3	-1.629619002e-2	2.704399788e-2
1.468150508e1	1.142369037e-2	8.539913278e-3	-2.273280501e-2	2.683675175e-2
1.469143808e1	1.494211421e-2	7.034849105e-3	-1.000926375e-2	1.931168661e-2
1.470137108e1	6.902976691e-3	-3.586170450e-3	-1.180494368e-2	1.413748213e-2
1.471130308e1	9.170533202e-3	9.373703389e-3	-3.201233625e-2	3.459414209e-2
1.472123608e1	1.362486214e-2	6.466243928e-3	-1.958875716e-2	2.472182408e-2
1.473116908e1	2.164590584e-2	3.322639181e-3	-2.108681381e-2	3.040129746e-2
1.474110208e1	1.758592363e-2	4.051426090e-3	-1.869120955e-2	2.598153340e-2
1.475103408e1	1.493302019e-2	-3.669927246e-3	-2.632591903e-2	3.048798896e-2
1.476096708e1	1.018958412e-2	5.235857279e-3	-9.112300873e-3	1.463816427e-2
1.477090008e1	2.067943190e-2	-6.160772592e-4	-2.453082383e-2	3.209018187e-2
1.478083308e1	3.265613069e-2	-1.888175569e-3	-1.764572740e-2	3.716664867e-2
1.479076508e1	2.062268421e-2	2.806430538e-3	-1.629794419e-2	2.643471470e-2
1.480069808e1	8.341732068e-3	-1.131404252e-3	-3.231405258e-2	3.339255252e-2
1.481063108e1	1.590644912e-2	1.788781126e-2	-1.555008531e-2	2.854459788e-2
1.482056408e1	1.877499604e-2	1.754044097e-2	-5.222148299e-3	2.621904611e-2
1.483049608e1	8.005130018e-3	1.718464246e-2	2.562249899e-3	1.913005927e-2
1.484042908e1	9.732553409e-3	1.417168644e-2	-1.315565050e-2	2.164787362e-2
1.485036208e1	1.357673339e-2	2.768681736e-2	-1.794685900e-2	3.567880734e-2
1.486029508e1	1.552571087e-2	1.465761290e-2	-1.884499133e-2	2.847853599e-2
1.487022708e1	1.311009246e-2	1.310937527e-2	-2.139145374e-2	2.830767630e-2
1.488016008e1	1.503520828e-2	3.273814931e-3	-2.154231191e-2	2.647350665e-2
1.489009308e1	2.184286336e-2	4.110277402e-3	-1.675227284e-2	2.783242184e-2
1.490002608e1	4.573925915e-3	-1.375939835e-2	-1.780009389e-2	2.295833582e-2
1.490995908e1	8.950502591e-3	3.973228717e-3	-6.572855115e-3	1.179408612e-2
1.491989108e1	-1.105175721e-3	8.212236227e-3	-1.330826283e-2	1.567712016e-2
1.492982408e1	-9.458682162e-3	7.285502795e-3	-1.345795155e-2	1.799059974e-2
1.493975708e1	5.984167265e-3	1.467525048e-2	-2.827655017e-2	3.241506632e-2
1.494968908e1	9.772988276e-3	1.742237289e-3	-3.216728747e-2	3.366424028e-2
1.495962208e1	9.275194936e-3	2.010536780e-2	-2.737666368e-2	3.520989591e-2
1.496955508e1	2.816291319e-2	2.016563980e-2	-2.767721057e-2	4.433768930e-2
1.497948808e1	1.319300301e-2	1.181476974e-2	-2.109149158e-2	2.754079029e-2
1.498942108e1	1.408274938e-2	6.890345220e-3	-1.495483875e-2	2.166674617e-2
1.499935308e1	2.697732170e-2	4.858940276e-3	-7.321298718e-3	2.837228580e-2
1.500928608e1	7.546623229e-3	2.879114170e-4	-1.779892445e-2	1.933484230e-2
1.501921908e1	8.118781275e-3	8.949652347e-3	-8.518223763e-3	1.478414768e-2
1.502915208e1	1.733077375e-2	9.946561502e-3	-1.076413929e-2	2.269705926e-2
1.503908408e1	1.260491473e-2	1.647677306e-2	-5.075383186e-3	2.135714026e-2
1.504901708e1	1.577005025e-2	1.913785004e-2	-8.667912483e-3	2.626945937e-2
1.505895008e1	1.295551584e-2	-1.254279377e-2	-7.338255644e-4	1.804731465e-2
1.506888308e1	3.028914810e-3	6.299890643e-3	1.361816525e-3	7.121621395e-3
1.507881508e1	-8.493985797e-4	-2.115061241e-3	-4.775421023e-3	5.291465577e-3
1.508874808e1	7.826680876e-3	7.001638748e-3	-6.122034788e-3	1.215562375e-2
1.509868108e1	9.217060822e-3	1.266963267e-2	3.607732058e-3	1.607760967e-2
1.510861408e1	9.832714386e-3	1.014286350e-2	-1.481684446e-3	1.420406072e-2
1.511854608e1	1.362328614e-2	5.647514965e-3	-9.265497923e-3	1.741659560e-2
1.512847908e1	1.491377463e-3	1.288635881e-2	-1.914553821e-2	2.312648013e-2
1.513841208e1	7.683737010e-3	-1.155907740e-3	-4.743670642e-2	4.806887822e-2
1.514834508e1	1.281764603e-2	-5.837298227e-3	-2.887472034e-2	3.212655560e-2
1.515827708e1	1.196014614e-2	9.273286597e-3	-2.393382311e-2	2.831725320e-2
1.516821008e1	1.082726867e-2	1.384798367e-2	-3.366300523e-2	3.797623362e-2
1.517814308e1	1.176569539e-2	2.146974248e-3	-2.557981431e-2	2.823770505e-2
1.518807608e1	5.124443838e-3	1.122062411e-3	-3.126506209e-3	6.106880528e-3
1.519800808e1	1.450803382e-2	7.072837735e-3	-2.752693713e-2	3.190987851e-2
1.520794108e1	2.135513477e-2	9.577264152e-3	-3.067098498e-2	3.858076061e-2
1.521787408e1	4.069374587e-3	1.927225834e-2	-2.318596423e-2	3.042316039e-2
1.522780708e1	2.224663416e-2	2.750635310e-3	-1.225868762e-2	2.554905376e-2
1.523773908e1	1.214697382e-2	-1.969049871e-4	-2.079094470e-2	2.408009813e-2
1.524767208e1	1.834202571e-2	8.031219221e-3	-1.345619738e-2	2.412466865e-2
1.525760508e1	1.752387234e-2	5.146289812e-3	-2.797483385e-2	3.340900671e-2
1.526753808e1	8.916937632e-3	2.466428652e-4	-6.718450785e-3	1.116737169e-2
1.527747008e1	4.449679149e-3	1.830543950e-4	-1.225751817e-2	1.304146867e-2
1.528740308e1	-1.962918003e-3	-7.722002012e-3	4.357929826e-3	9.081514991e-3
1.529733608e1	1.864220829e-2	-2.083947659e-3	-3.874949813e-3	1.915437297e-2
1.530726908e1	1.086325417e-2	9.537302088e-3	-2.258662462e-2	2.681652539e-2
1.531720108e1	1.533388451e-2	1.816752744e-3	-9.264328480e-3	1.800712045e-2
1.532713408e1	-1.855046582e-3	1.852882141e-2	-8.216507435e-3	2.035360939e-2
1.533706708e1	8.775224879e-3	1.855461768e-2	-1.210958362e-2	2.383108106e-2
1.534699933e1	1.936117484e-2	6.920860377e-3	-2.348709583e-2	3.121533390e-2
1.535693133e1	1.800459911e-3	1.897393157e-2	9.127503633e-4	1.908100753e-2
1.536686433e1	9.288771440e-3	9.392793635e-3	-1.121262074e-2	1.732710913e-2
1.537679733e1	2.326361799e-2	-1.805053744e-3	-8.069742322e-3	2.468957031e-2
1.538673033e1	1.252334607e-2	6.062411461e-3	-2.199079335e-2	2.602272126e-2
1.539666233e1	4.786459927e-3	3.795605837e-3	-1.001511097e-2	1.173112399e-2
1.540659533e1	3.322900707e-3	2.148978290e-2	-1.705048084e-2	2.763279456e-2
1.541652833e1	4.377297015e-3	1.737734477e-2	-2.004483998e-2	2.688732880e-2
1.542646133e1	2.214604378e-5	1.505679044e-2	-3.097094715e-2	3.443700039e-2
1.543639433e1	1.408579062e-2	1.266867336e-2	-2.318713367e-2	2.994241056e-2
1.544632633e1	3.393089450e-2	1.781440130e-2	-2.513308704e-2	4.582936351e-2
1.545625933e1	6.945366720e-3	7.610123763e-3	-9.715148807e-3	1.416108113e-2
1.546619233e1	9.283351916e-3	8.277249956e-3	-2.064301014e-2	2.410036011e-2
1.547612433e1	3.800746419e-3	8.385729510e-5	-3.172114491e-2	3.194814142e-2
1.548605733e1	1.028353700e-2	1.011471007e-2	-2.378764272e-2	2.781924584e-2
1.549599033e1	1.251350059e-2	8.257268923e-3	-1.615293324e-2	2.203831753e-2
1.550592333e1	-3.601650725e-4	8.813759401e-3	-2.558332264e-2	2.706138339e-2
1.551585533e1	-2.348458507e-3	7.096021031e-3	-1.181137562e-2	1.397774538e-2
1.552578833e1	-1.196637822e-3	7.122228434e-3	-2.453491688e-2	2.557577420e-2
1.553572133e1	-7.559770328e-4	1.642245790e-2	-3.366592884e-2	3.746549599e-2
1.554565433e1	-4.808025532e-3	1.301659640e-2	-2.498456776e-2	2.857931975e-2
1.555558633e1	5.985068901e-3	1.329547661e-2	-3.877873421e-3	1.508736724e-2
1.556551933e1	5.382949014e-3	1.195912745e-2	-8.967874646e-3	1.588771995e-2
1.557545233e1	-4.659814032e-5	9.233712824e-3	-7.021336555e-3	1.160012030e-2
1.558538533e1	1.825221271e-2	1.639769860e-2	-7.769780159e-3	2.573707971e-2
1.559531833e1	2.112567495e-2	9.113936266e-3	-1.465487659e-2	2.727862504e-2
1.560525033e1	2.220568766e-2	8.477160777e-3	9.145045280e-3	2.546736485e-2
1.561518333e1	1.404040046e-2	4.593271120e-3	-1.061386585e-2	1.819024830e-2
1.562511633e1	1.669084053e-2	-6.182224564e-3	-2.887588978e-2	3.392080584e-2
1.563504933e1	3.092276586e-3	-2.411574461e-3	3.139954805e-4	3.934013094e-3
1.564498133e1	1.685598526e-3	4.483197285e-3	6.900883913e-3	8.400148753e-3
1.565491433e1	1.188814887e-2	8.560908437e-3	-3.321569324e-2	3.630288575e-2
1.566484733e1	4.505133480e-3	8.735831548e-4	-1.555242419e-2	1.621534068e-2
1.567478033e1	6.352650344e-3	2.397262487e-2	-1.435432971e-2	2.865466263e-2
1.568471233e1	-1.125988839e-2	1.777463566e-2	-1.689845324e-2	2.698667229e-2
1.569464533e1	5.475402401e-3	2.174510065e-2	-2.153938830e-2	3.109300053e-2
1.570457833e1	2.136679037e-2	6.017789897e-4	-1.555242419e-2	2.643444281e-2
1.571451033e1	4.591329661e-3	1.842640378e-2	-2.228841662e-2	2.928115742e-2
1.572444333e1	-7.412554112e-3	1.898608738e-2	-3.052129626e-2	3.670104900e-2
1.573437633e1	2.084494008e-2	1.385267515e-2	-1.180962145e-2	2.767445202e-2
1.574430933e1	2.617426144e-2	8.271165197e-3	-1.196106434e-2	2.994279873e-2
1.575424233e1	1.412336126e-3	1.549073607e-3	-2.857651234e-2	2.865329614e-2
1.576417433e1	6.507898488e-3	2.651830156e-2	-2.812744617e-2	3.920110061e-2
