Time (s),Linear Acceleration x (m/s^2),Linear Acceleration y (m/s^2),Linear Acceleration z (m/s^2),Absolute acceleration (m/s^2)
2.459719583e-1,1.702846014e-2,-3.509581975e-2,-2.047051728e-2,4.405368425e-2
2.559039583e-1,1.709712267e-2,-3.820772619e-2,-2.735619843e-2,5.000503511e-2
2.658359583e-1,1.443690564e-2,-1.866379160e-2,-3.753620088e-2,4.433652825e-2
2.757689583e-1,2.445978244e-2,-2.485147965e-2,-2.675802827e-2,4.395303260e-2
2.857009583e-1,3.709509013e-3,-4.162769867e-2,-3.139779389e-2,5.227281526e-2
2.956329583e-1,2.277760930e-2,-3.002562596e-2,-2.690654755e-2,4.630680297e-2
3.055649583e-1,7.995183470e-3,-3.150269659e-2,-2.960094452e-2,4.396087770e-2
3.154969583e-1,2.301730632e-2,-3.636772620e-2,-2.765616059e-2,5.115927206e-2
3.254289583e-1,3.291801514e-2,-3.807241797e-2,-2.032024384e-2,5.427722395e-2
3.353609583e-1,2.515780980e-2,-3.243328096e-2,-1.523024261e-2,4.378119914e-2
3.452929583e-1,2.382650386e-2,-3.712706024e-2,-1.253467619e-2,4.586108367e-2
3.552259583e-1,3.478280185e-2,-2.909072014e-2,-2.136748016e-2,5.012666467e-2
3.651579583e-1,2.408376765e-2,-3.036227027e-2,-5.501645207e-3,3.914285912e-2
3.750899583e-1,2.021318954e-2,-2.347221284e-2,-2.391160369e-2,3.913160613e-2
3.850219583e-1,1.433676522e-2,-2.475160190e-2,-2.451094329e-2,3.766923114e-2
3.949539583e-1,2.149450178e-2,-3.847290656e-2,-2.990032196e-2,5.325605505e-2
4.048859583e-1,3.234370664e-2,-1.343424291e-2,-1.702767670e-2,3.894272738e-2
4.148179583e-1,1.573923245e-2,-2.109373910e-2,-2.032199800e-2,3.325135892e-2
4.247499583e-1,2.116220178e-2,-3.203824673e-2,-1.134009004e-2,4.003605474e-2
4.346829583e-1,3.243798158e-2,-4.733524810e-2,-2.526289523e-2,6.269818368e-2
4.446149583e-1,1.900621345e-2,-3.269633258e-2,-2.077340305e-2,4.314881908e-2
4.545469583e-1,1.733864008e-2,-2.664244526e-2,-1.718204319e-2,3.613406893e-2
4.644789583e-1,1.694028138e-2,-3.062265409e-2,-2.526581883e-2,4.316342987e-2
4.744109583e-1,2.751135750e-2,-3.473611549e-2,-1.808192968e-2,4.785842341e-2
4.843429583e-1,1.277425101e-2,-3.345489917e-2,-1.823220313e-2,4.018488520e-2
4.942749583e-1,3.229995074e-2,-3.592391339e-2,-2.676562965e-2,5.522873620e-2
5.042069583e-1,2.828627574e-2,-3.212875066e-2,-1.074952126e-2,4.413527185e-2
5.141389583e-1,2.733955442e-2,-3.853838624e-2,-2.032959938e-2,5.143880890e-2
5.240719583e-1,3.171921944e-2,-1.631491939e-2,-1.957998633e-2,4.068981865e-2
5.340039583e-1,2.492032376e-2,-2.619814823e-2,-2.826368630e-2,4.589337066e-2
5.439359583e-1,8.374864196e-3,-3.613396548e-2,-2.901329935e-2,4.709111753e-2
5.538679583e-1,4.154329320e-2,-3.255932501e-2,-2.033310771e-2,5.656315164e-2
5.637999583e-1,3.056640890e-2,-2.338810430e-2,-2.677206159e-2,4.688338786e-2
5.737319583e-1,1.575278269e-2,-2.653406164e-2,-3.725378036e-2,4.837407096e-2
5.836639583e-1,2.928974931e-2,-2.421611572e-2,-3.261401474e-2,5.007977269e-2
5.935961250e-1,1.083918237e-2,-2.663973179e-2,-3.635974109e-2,4.635939987e-2
6.035291250e-1,2.422420589e-2,-2.616864720e-2,-3.606270254e-2,5.071615878e-2
6.134611250e-1,2.736633969e-2,-9.752744576e-3,-9.566629529e-3,3.058681048e-2
6.233931250e-1,3.064028710e-2,-2.454914206e-2,-2.603297353e-2,4.710842048e-2
6.333251250e-1,2.649410414e-2,-3.196299124e-2,-1.271301627e-2,4.341878793e-2
6.432571250e-1,2.201482860e-2,-1.827093179e-2,-2.034831047e-2,3.510745456e-2
6.531891250e-1,2.298405941e-2,-3.401423103e-2,-1.780477166e-2,4.474645007e-2
6.631211250e-1,3.447866441e-2,-2.740535159e-2,-5.083569288e-3,4.433592529e-2
6.730531250e-1,2.768898951e-2,-3.668623500e-2,-2.154874384e-2,5.076325777e-2
6.829861250e-1,2.500261419e-2,-3.366586489e-2,-1.526415646e-2,4.462640079e-2
6.929181250e-1,1.278903122e-2,-3.114534035e-2,-8.680776358e-3,3.476992124e-2
7.028501250e-1,2.168855854e-2,-1.786686178e-2,-2.754272461e-2,3.934742686e-2
7.127821250e-1,1.104766873e-2,-1.677855791e-2,-2.829350710e-2,3.470005092e-2
7.227141250e-1,1.674630686e-2,-2.559127120e-2,-2.170778811e-2,3.750440001e-2
7.326461250e-1,2.082459359e-2,-2.718355939e-2,-2.814498782e-2,4.432549987e-2
7.425781250e-1,1.509856948e-2,-2.527405975e-2,-3.338526249e-2,4.451202813e-2
7.525101250e-1,1.409855628e-2,-2.569107587e-2,-4.117083013e-2,5.053551149e-2
7.624421250e-1,2.751756331e-2,-2.031358349e-2,-3.578379035e-2,4.950088501e-2
7.723751250e-1,3.399761443e-2,-2.817119979e-2,-3.054585457e-2,5.368895153e-2
7.823071250e-1,1.146228771e-2,-2.637031219e-2,-3.668309212e-2,4.660929791e-2
7.922391250e-1,1.816079515e-2,-2.431176337e-2,-2.994651496e-2,4.263414215e-2
8.021711250e-1,1.863319421e-2,-1.234995900e-2,-1.991678596e-2,2.993986935e-2
8.121031250e-1,2.351760185e-2,-1.222336678e-2,-1.647511482e-2,3.120765452e-2
8.220351250e-1,2.020776259e-2,-1.298446412e-2,-2.860224009e-2,3.735020904e-2
8.319671250e-1,1.811951860e-2,-3.289158390e-2,-2.276613414e-2,4.391434970e-2
8.418991250e-1,1.533564438e-2,-3.549650934e-2,-4.102874279e-2,5.637855886e-2
8.518311250e-1,1.811092479e-2,-2.463230043e-2,-4.357462049e-2,5.323066195e-2
8.617641250e-1,2.342062030e-2,-3.146522873e-2,-1.932738662e-2,4.372795385e-2
8.716961250e-1,1.392759831e-2,-3.099740580e-2,-2.890921891e-2,4.461569341e-2
8.816281250e-1,1.921404200e-2,-2.398380767e-2,-1.468879044e-2,3.406116564e-2
8.915601250e-1,5.155856634e-3,-2.538090848e-2,-2.786081314e-2,3.803943062e-2
9.014921250e-1,-3.654886654e-3,-1.095952766e-2,-1.184470475e-2,1.654588993e-2
9.114241250e-1,8.789286747e-3,-8.986211149e-3,-1.439175189e-2,1.910827241e-2
9.213561250e-1,2.972076904e-2,-2.824765214e-2,-4.063230157e-3,4.120392946e-2
9.312881250e-1,2.418109181e-2,-1.744990049e-2,-1.244638324e-2,3.231310390e-2
9.412211250e-1,1.259329111e-2,-1.993325866e-2,-1.603774309e-2,2.851552183e-2
9.511531250e-1,9.594162834e-3,-2.332810638e-2,-2.501965106e-2,3.552789674e-2
9.610851250e-1,1.101296345e-2,-2.376644656e-2,-2.202587664e-2,3.422380148e-2
9.710171250e-1,2.260299683e-2,-2.501147409e-2,-3.762683272e-3,3.392089455e-2
9.809491250e-1,2.458763775e-2,-2.907834048e-2,-7.804278731e-3,3.887169384e-2
9.908811250e-1,3.050731319e-2,-2.314390082e-2,-2.292400897e-2,4.463010744e-2
1.000813125e0,3.186237801e-2,-3.272210601e-2,-3.280346453e-2,5.623179385e-2
1.010745125e0,1.058994937e-2,-3.325148002e-2,-2.981027484e-2,4.589619197e-2
1.020678125e0,3.269887703e-2,-3.385952650e-2,-1.783517718e-2,5.033664310e-2
1.030610125e0,3.012719850e-2,-2.265337424e-2,-2.127743304e-2,4.328455395e-2
1.040542125e0,2.341801189e-2,-3.414661565e-2,-2.861276507e-2,5.032976223e-2
1.050474125e0,1.230027822e-2,-3.499225094e-2,-4.028907001e-2,5.476279424e-2
1.060406125e0,1.962444801e-2,-2.456119280e-2,-3.160770893e-2,4.458047124e-2
1.070338125e0,9.848673174e-3,-2.445389640e-2,-2.681708515e-2,3.760512555e-2
1.080270125e0,1.003759763e-2,-2.405227491e-2,-2.651946187e-2,3.718261895e-2
1.090202125e0,1.432086125e-2,-2.785067188e-2,-3.176149070e-2,4.460425184e-2
1.100134125e0,4.198164936e-3,-2.528689622e-2,-3.924592674e-2,4.687530773e-2
1.110067125e0,3.700990579e-2,-3.365261729e-2,-2.996522605e-2,5.831077559e-2
1.119999125e0,2.672489785e-2,-2.956951573e-2,-1.664526880e-2,4.319307120e-2
1.129931125e0,3.373701819e-2,-3.382387675e-2,-3.026986599e-2,5.655533416e-2
1.139863125e0,2.582204893e-2,-2.854520232e-2,-2.308714628e-2,4.488455313e-2
1.149795125e0,1.977084311e-2,-2.385237322e-2,-1.814800322e-2,3.590504096e-2
1.159727125e0,1.252651407e-2,-8.698674319e-3,-3.281925201e-2,3.618955364e-2
1.169659125e0,2.823246308e-2,-5.912201973e-3,8.595407009e-4,2.885766647e-2
1.179591125e0,1.235998035e-2,-1.312349995e-2,-1.934843659e-2,2.644536564e-2
1.189523125e0,1.961043754e-2,-2.911417295e-2,-1.979984164e-2,4.030183688e-2
1.199456125e0,2.238713864e-2,-2.996393784e-2,-2.788537145e-2,4.665421190e-2
1.209388125e0,2.032869489e-2,-1.940977754e-2,-9.419864416e-4,2.812263570e-2
1.219320125e0,2.856371242e-2,-2.873525511e-2,-2.174988806e-2,4.598541273e-2
1.229252125e0,2.170047909e-2,-1.663966826e-2,4.028731585e-4,2.734870489e-2
1.239184125e0,2.474561764e-2,-2.022242174e-2,-4.389504790e-3,3.225770739e-2
1.249116125e0,1.606465856e-2,-2.387927041e-2,-2.070499063e-2,3.545404697e-2
1.259048125e0,1.241283141e-2,-2.758542756e-2,-1.486713052e-2,3.370557472e-2
1.268980125e0,1.993596756e-2,-2.062742366e-2,-2.295090616e-2,3.673795725e-2
1.278912125e0,3.472278566e-2,-3.087431277e-2,-2.983541787e-2,5.521817810e-2
1.288845125e0,1.988009925e-2,-2.229414507e-2,-1.576350868e-2,3.377477544e-2
1.298777125e0,1.039096931e-2,-1.298249069e-2,-1.920634925e-2,2.540474679e-2
1.308709125e0,1.055052977e-2,-2.115814070e-2,-2.848588049e-2,3.701926504e-2
1.318641125e0,1.639962179e-2,-2.540875585e-2,-1.621199012e-2,3.431298722e-2
1.328573125e0,1.533707535e-2,3.222418819e-3,-1.037471473e-2,1.879480165e-2
1.338505125e0,1.253359012e-2,-2.578719861e-2,-3.911494911e-2,4.849793539e-2
1.348437125e0,2.479897348e-2,-2.020968578e-2,-1.591319740e-2,3.573024400e-2
1.358369125e0,1.549862867e-2,-1.117784807e-2,-2.549444497e-2,3.186092438e-2
1.368302125e0,1.066730164e-2,-2.640659234e-2,-4.211047769e-2,5.083691350e-2
1.378234125e0,1.703084585e-2,-1.502145133e-2,-2.339938760e-2,3.260713189e-2
1.388166125e0,3.175973197e-2,-1.994051286e-2,-3.043475747e-2,4.829678137e-2
1.398098125e0,3.812820863e-3,-1.592179463e-2,-2.819059610e-2,3.259985975e-2
1.408030125e0,9.546345858e-3,-2.661821586e-2,-2.070732951e-2,3.504933138e-2
1.417962125e0,1.481618665e-2,-1.559956737e-2,-2.939161420e-2,3.642434453e-2
1.427894125e0,1.990630436e-2,-2.110405396e-2,8.449226618e-4,2.902336888e-2
1.437826125e0,9.066774817e-3,-1.991082910e-2,-1.472095013e-2,2.636956378e-2
1.447758125e0,7.061608111e-3,-2.526666851e-2,-1.636577189e-2,3.092101771e-2
1.457691125e0,1.923863000e-2,-3.224728469e-2,-9.779468179e-3,3.880270933e-2
1.467623125e0,1.515803977e-2,-4.089331579e-2,-2.280472577e-2,4.921468240e-2
1.477555125e0,1.199246800e-2,-2.097388032e-2,-2.774620771e-2,3.679096339e-2
1.487487125e0,2.386651161e-2,-3.072641476e-2,-9.782976508e-3,4.011769647e-2
1.497419125e0,1.749150480e-2,-2.223577341e-2,-1.551266313e-3,2.833352760e-2
1.507351125e0,1.247299378e-2,-1.628805874e-2,2.339470983e-3,2.064823372e-2
1.517283125e0,2.365953845e-2,-2.248224269e-2,-2.220889449e-2,3.947733515e-2
1.527215125e0,9.655011564e-3,-1.129555070e-2,-9.636211395e-3,1.771059807e-2
1.537147125e0,1.678158544e-2,-1.567358033e-2,-3.059438646e-2,3.825309416e-2
1.547080125e0,2.901103583e-2,-1.056646686e-2,-2.865018725e-2,4.212034724e-2
1.557012125e0,1.622461988e-2,-1.177341440e-2,-1.412979662e-2,2.452555258e-2
1.566944125e0,2.171628028e-2,-1.421412444e-2,-1.877131641e-2,3.203124228e-2
1.576876125e0,1.659273522e-2,-8.087338787e-3,-3.284205616e-2,3.767392418e-2
1.586808125e0,1.618704923e-2,-2.276222382e-2,-2.460917652e-2,3.722567615e-2
1.596739833e0,1.958835059e-2,-1.580563604e-2,-3.239357471e-2,4.102274116e-2
1.606671833e0,1.634672618e-2,-1.775615755e-2,-3.359283864e-2,4.136393835e-2
1.616603833e0,7.548344275e-3,-9.579475131e-3,-3.898455620e-2,4.084775963e-2
1.626535833e0,5.081727187e-3,-1.997306541e-2,-3.299759209e-2,3.890486315e-2
1.636468833e0,2.412808314e-2,-1.911232785e-2,-4.302790582e-2,5.290412226e-2
1.646400833e0,1.690722292e-2,-1.557045006e-2,-3.240117610e-2,3.972567576e-2
1.656332833e0,1.417558877e-2,-2.349725537e-2,-4.303082943e-2,5.103646352e-2
1.666264833e0,1.995410764e-2,-2.469198771e-2,-3.434888363e-2,4.677292459e-2
1.676196833e0,1.970137773e-2,-1.875627810e-2,-2.327308774e-2,3.579914616e-2
1.686128833e0,2.306864533e-2,-1.974452150e-2,-9.951376319e-3,3.195369176e-2
1.696060833e0,1.451597553e-2,-2.040919460e-2,-2.168732285e-3,2.513865887e-2
1.705992833e0,2.324263197e-2,-9.437460881e-3,-1.564013243e-2,2.956178870e-2
1.715924833e0,2.945544935e-2,-1.815947838e-2,-7.705460787e-3,3.545087132e-2
1.725857833e0,4.100252625e-3,-2.355560875e-2,-1.608861387e-2,2.881878331e-2
1.735789833e0,5.772488922e-3,-1.618511120e-2,7.601380348e-5,1.718386543e-2
1.745721833e0,-2.219083436e-3,-3.519856629e-2,-4.713440537e-3,3.558201683e-2
1.755653833e0,2.042086163e-2,-2.280917513e-2,-5.164260864e-3,3.104737751e-2
1.765585833e0,2.685721852e-2,-1.152668017e-2,-2.297780335e-2,3.717733165e-2
1.775517833e0,5.341008946e-3,-2.001248843e-2,-2.492434144e-2,3.240754335e-2
1.785449833e0,1.080947006e-2,-5.591409104e-3,-3.405418396e-2,3.616346145e-2
1.795381833e0,3.807167793e-2,-2.066202273e-2,-2.013313293e-2,4.776729933e-2
1.805313833e0,1.982925131e-2,-1.788952888e-2,-1.983492494e-2,3.326648010e-2
1.815246833e0,5.428367718e-3,-1.890168191e-2,-3.794609070e-2,4.273928584e-2
1.825178833e0,1.718170401e-2,-1.897377625e-2,-2.013371766e-2,3.256657373e-2
1.835110833e0,4.407925804e-3,-8.100102162e-3,-3.779757142e-2,3.890627032e-2
1.845042833e0,1.095503718e-2,-1.587169130e-2,-4.333429992e-2,4.743189828e-2
1.854974833e0,-2.065945772e-3,-1.603280037e-2,-4.303433776e-2,4.597034964e-2
1.864906833e0,2.555954549e-2,-1.325964871e-2,-2.746788025e-2,3.979438522e-2
1.874838833e0,1.182211531e-2,-2.290428375e-2,-1.923383117e-2,3.216067297e-2
1.884770833e0,-4.116334752e-3,-8.724922836e-3,-2.163002014e-2,2.368388189e-2
1.894702833e0,2.041630719e-2,-1.524748276e-2,-2.896535218e-2,3.857852974e-2
1.904635833e0,9.653689088e-3,-2.561780294e-2,-1.010398865e-2,2.918143463e-2
1.914567833e0,1.305389524e-2,-3.510810804e-2,-3.540079772e-2,5.153833438e-2
1.924499833e0,2.612792226e-2,-3.480119317e-2,-2.971087217e-2,5.269276319e-2
1.934431833e0,2.346151198e-2,-1.682844196e-2,-2.028106749e-2,3.528400065e-2
1.944363833e0,1.770783236e-2,-1.307428284e-2,-2.671768248e-2,3.461702985e-2
1.954295833e0,3.427008555e-3,-1.340790303e-2,-1.130149841e-2,1.786729184e-2
1.964227833e0,2.285817069e-3,-1.709908582e-3,-1.669204652e-2,1.693437817e-2
1.974159833e0,-1.898898130e-3,-1.977496357e-2,-2.447644472e-2,3.152382186e-2
1.984091833e0,3.071415388e-2,-1.087696315e-2,-1.874617338e-3,3.263712252e-2
1.994024833e0,1.441365610e-2,-2.402408036e-2,-8.012439609e-3,2.913947680e-2
2.003956833e0,1.206267342e-2,-1.880922281e-2,-2.507812321e-2,3.358879600e-2
2.013888833e0,1.540084883e-2,-2.781269238e-2,-2.597567081e-2,4.105444527e-2
2.023820833e0,1.755518692e-2,-2.002176175e-2,-3.076570988e-2,4.068887361e-2
2.033752833e0,-3.430527162e-3,-3.381833103e-2,-1.265454412e-2,3.627100105e-2
2.043684833e0,1.271018859e-2,-1.142193278e-2,-2.657676458e-2,3.159642161e-2
2.053616833e0,1.089934245e-2,-1.762067573e-2,-2.433260322e-2,3.195871491e-2
2.063548833e0,1.168297213e-2,-2.162972778e-2,-3.091715276e-2,3.949945945e-2
2.073480833e0,9.953658103e-3,-3.017996505e-2,-1.280423284e-2,3.426155248e-2
2.083413833e0,1.844394085e-2,-3.129191360e-2,-4.349159002e-2,5.666463813e-2
2.093345833e0,2.029500031e-2,-2.626560135e-2,-2.567980170e-2,4.196690443e-2
2.103277833e0,2.146024761e-2,-1.944597546e-2,-3.151824653e-2,4.280289772e-2
2.113209833e0,9.641992373e-3,-1.615828710e-2,-2.643058419e-2,3.244432215e-2
2.123141833e0,1.718911239e-2,-4.884288870e-3,-3.361622751e-2,3.807062666e-2
2.133073833e0,3.595317231e-2,-1.766739864e-2,-3.167144358e-2,5.106709226e-2
2.143005833e0,1.550913652e-2,-2.270128487e-2,-1.595471263e-2,3.178733247e-2
2.152937833e0,1.795847121e-2,-2.617229258e-2,-2.867942333e-2,4.277855666e-2
2.162869833e0,8.816312989e-3,-1.332188501e-2,-2.299125195e-2,2.799638657e-2
2.172802833e0,1.325716593e-2,-2.443177748e-2,-2.373911083e-2,3.655420061e-2
2.182734833e0,2.855745864e-2,-2.910609649e-2,-2.029627025e-2,4.554812710e-2
2.192666833e0,2.244760022e-2,-1.269485336e-2,-3.691288769e-2,4.502904990e-2
2.202598833e0,4.334568372e-3,-7.164017754e-3,-2.658436596e-2,2.787185224e-2
2.212530833e0,2.688755552e-2,1.613082346e-3,-1.625467479e-2,3.146040573e-2
2.222462833e0,1.991453386e-2,-6.968519753e-3,-1.206456006e-2,2.430437277e-2
2.232394833e0,-4.367812991e-3,-1.061794977e-2,-1.715573072e-2,2.064310404e-2
2.242326833e0,6.583473750e-3,-2.374535090e-2,-2.269479811e-2,3.349981608e-2
2.252258833e0,-9.662014518e-3,-1.406533107e-2,-2.733573318e-2,3.222468574e-2
2.262190833e0,3.352163281e-2,-1.992207586e-2,-1.446425736e-2,4.159090902e-2
2.272123833e0,3.434928562e-3,-2.543788229e-2,2.900218964e-3,2.583207037e-2
2.282055833e0,1.560892977e-2,-1.987125076e-2,-8.478462696e-3,2.665313537e-2
2.291987833e0,2.561317999e-2,-1.927089703e-2,-2.479394853e-2,4.052335555e-2
2.301919833e0,2.313499980e-2,1.458149403e-5,-3.871616900e-2,4.510177569e-2
2.311851833e0,1.855562267e-2,-6.704362649e-3,-2.300060749e-2,3.030325983e-2
2.321783833e0,1.628899064e-2,-2.038176751e-2,-2.554823935e-2,3.651657427e-2
2.331715833e0,8.098489610e-3,-1.170339399e-2,-4.066504598e-2,4.308365037e-2
2.341647833e0,2.687734345e-3,-1.937606469e-2,-2.674341023e-2,3.313405785e-2
2.351579833e0,3.592481331e-3,-1.697260324e-2,-2.794092000e-2,3.288875481e-2
2.361512833e0,2.023128622e-2,-3.772948790e-2,-3.183341146e-2,5.334965121e-2
2.371444833e0,9.481118568e-3,-1.793698269e-2,-3.737247884e-2,4.252445334e-2
2.381376833e0,2.091493764e-2,-1.303612975e-2,-1.881224692e-2,3.100445016e-2
2.391308833e0,8.503151194e-3,-5.453341724e-3,-2.360345542e-2,2.567422100e-2
2.401240833e0,1.041526837e-2,-1.089838771e-2,-3.153637290e-2,3.495419125e-2
2.411172833e0,1.850604011e-2,-1.224052470e-2,-2.884197593e-2,3.638905798e-2
2.421104833e0,-2.111484390e-4,-6.640372183e-3,-2.629668295e-2,2.712295450e-2
2.431036833e0,1.235745074e-2,-8.067037985e-3,-2.569792807e-2,2.963388597e-2
2.440968833e0,1.171065276e-2,-2.097113944e-2,-2.495065391e-2,3.463326736e-2
2.450901833e0,1.159081910e-2,-1.838984041e-2,-2.435248375e-2,3.264317359e-2
2.460833833e0,2.483264065e-2,-1.897125464e-2,-1.162894249e-2,3.334367778e-2
2.470765833e0,1.315468890e-2,-2.545393473e-2,-1.207917809e-2,3.109429492e-2
2.480697833e0,6.844602178e-3,-2.625496672e-2,-1.896602869e-2,3.310411003e-2
2.490629833e0,2.041103328e-2,-1.261508455e-2,-7.290308475e-3,2.507786345e-2
2.500561833e0,4.680205055e-3,-5.671260143e-3,-1.552201867e-2,1.717558076e-2
2.510493833e0,1.015912378e-2,-2.108632045e-2,-3.273622155e-2,4.024302309e-2
2.520425833e0,1.817900717e-2,-1.666343171e-2,-2.555057824e-2,3.551025635e-2
2.530357833e0,7.345466448e-3,-2.328626225e-2,-2.180777550e-2,3.273812699e-2
2.540290833e0,7.237847988e-4,-3.685957753e-2,-2.839466393e-2,4.653395814e-2
2.550222833e0,1.482360531e-2,-2.574667923e-2,-3.198719323e-2,4.365559868e-2
2.560154833e0,2.379941024e-2,-5.957664074e-3,-2.570085168e-2,3.553082417e-2
2.570086833e0,7.702758734e-3,-1.767300831e-2,-2.599964440e-2,3.236740990e-2
2.580018833e0,1.304171430e-2,-1.111848056e-2,-1.836668909e-2,2.512055314e-2
2.589950625e0,1.662446093e-2,-3.293261491e-3,-2.420513391e-2,2.954838033e-2
2.599882625e0,9.161894855e-3,-8.670242233e-3,-1.896602869e-2,2.277770098e-2
2.609814625e0,1.304614539e-2,-1.409545337e-2,-1.746972620e-2,2.596295532e-2
2.619746625e0,1.761347635e-2,-1.623761737e-2,-3.558147669e-2,4.289447808e-2
2.629678625e0,9.564256382e-3,-2.219812282e-2,-2.180894494e-2,3.255551776e-2
2.639611625e0,3.400498512e-3,-2.260025594e-2,-1.642073572e-2,2.814205963e-2
2.649543625e0,1.705030040e-2,-8.054749696e-3,-2.180952966e-2,2.883136002e-2
2.659475625e0,1.146958074e-2,-4.731082683e-3,-2.315672815e-2,2.627105792e-2
2.669407625e0,2.022147842e-2,-8.814357826e-3,-2.465420008e-2,3.308218063e-2
2.679339625e0,6.201828725e-3,-2.379813116e-2,-2.360637903e-2,3.408921908e-2
2.689271625e0,2.290296813e-2,-2.891708524e-2,-1.881750941e-2,4.141065597e-2
2.699203625e0,1.174456204e-2,-2.488254298e-2,-1.507646084e-2,3.137475664e-2
2.709135625e0,-6.096247653e-4,-8.852529181e-3,-9.538562894e-3,1.302778175e-2
2.719067625e0,1.830072747e-2,-1.566942332e-2,-1.567580044e-2,2.874331527e-2
2.728999625e0,9.893347272e-3,-1.222586098e-2,-2.271117032e-2,2.762511998e-2
2.738932625e0,2.559025936e-2,-1.061927453e-2,-1.313226163e-2,3.066083269e-2
2.748864625e0,-5.177099614e-3,-2.114988151e-2,-3.553352952e-3,2.206232457e-2
2.758796625e0,1.042317353e-2,-1.145153431e-2,-8.493080735e-3,1.766104767e-2
2.768728625e0,1.339412553e-2,-2.300491981e-2,-1.582724333e-2,3.096983316e-2
2.778660625e0,1.965568950e-3,-4.896887792e-3,-2.705331266e-2,2.756310391e-2
2.788592625e0,3.938759838e-3,-1.047684914e-2,-1.448121428e-2,1.830256168e-2
2.798524625e0,1.297240196e-2,-1.326536802e-2,-1.777670503e-2,2.569561135e-2
2.808456625e0,2.536776138e-2,-1.125617336e-2,-2.526172578e-2,3.752838320e-2
2.818388625e0,3.847848425e-2,-1.468741086e-2,-3.199771821e-2,5.215522753e-2
2.828321625e0,1.453374101e-2,-1.341354012e-2,-2.855546236e-2,3.473567499e-2
2.838253625e0,2.264261171e-3,7.447498078e-3,-1.897596896e-2,2.051047304e-2
2.848185625e0,8.964658678e-3,-1.410604231e-2,-1.897538424e-2,2.528657236e-2
2.858117625e0,1.522582522e-2,-1.787076297e-2,-3.933305025e-2,4.580697289e-2
2.868049625e0,7.358254949e-3,-1.837619081e-2,-3.349577487e-2,3.890752162e-2
2.877981625e0,5.736753526e-3,-1.241662639e-2,-2.930624485e-2,3.234097926e-2
2.887913625e0,1.540231749e-2,-1.734464147e-2,-4.203154027e-2,4.800748223e-2
2.897845625e0,9.855344938e-4,-2.357980161e-2,-3.005819678e-2,3.821614209e-2
2.907777625e0,1.779474460e-3,-2.562325730e-2,-2.826134741e-2,3.818928648e-2
2.917709625e0,1.456865985e-2,-1.011431264e-3,-1.164706886e-2,1.867948222e-2
2.927642625e0,4.267049020e-3,3.260919079e-4,-9.998738766e-3,1.087606639e-2
2.937574625e0,5.659200260e-3,-1.061222132e-2,-2.182414770e-2,2.491865189e-2
2.947506625e0,1.896656088e-2,-1.049820975e-2,-2.062780738e-2,2.992405850e-2
2.957438625e0,7.368679438e-3,-1.820195292e-2,-1.494080544e-2,2.467460626e-2
2.967370625e0,1.737897102e-2,-6.809914028e-3,-1.468820572e-3,1.872327420e-2
2.977302625e0,2.992122804e-2,-1.386966862e-2,-1.179909647e-2,3.502665089e-2
2.987234625e0,1.530834634e-2,-1.876944347e-2,-1.045248270e-2,2.637976252e-2
2.997166625e0,1.752328305e-3,-8.382458724e-3,4.517558813e-3,9.682179836e-3
3.007098625e0,2.436096221e-4,-2.012868357e-2,8.560323715e-3,2.187469748e-2
3.017030625e0,8.490705304e-3,-1.861331368e-2,-2.003197610e-2,2.863263155e-2
3.026963625e0,2.482615847e-2,4.259486469e-3,-1.539221048e-2,2.951951071e-2
3.036895625e0,1.443327625e-2,-1.971520320e-2,-1.614006937e-2,2.928328089e-2
3.046827625e0,3.212224564e-2,-1.266072024e-2,-2.078041971e-2,4.029836653e-2
3.056759625e0,1.053072119e-2,-2.936816138e-2,-1.494314432e-2,3.459309980e-2
3.066691625e0,9.330077679e-3,-2.464037689e-2,-2.063190043e-2,3.346451611e-2
3.076623625e0,1.126038061e-2,-1.522602165e-2,-2.721761942e-2,3.315760416e-2
3.086555625e0,-2.022261817e-3,-1.370379956e-2,-2.452380717e-2,2.816559574e-2
3.096487625e0,1.322943276e-2,-7.094225753e-3,-3.155917704e-2,3.494749756e-2
3.106419625e0,1.979446266e-2,-1.292913484e-2,-2.901446879e-2,3.742756576e-2
3.116352625e0,-7.428384991e-4,-1.255269293e-3,-2.736789286e-2,2.740673402e-2
3.126284625e0,3.319404940e-3,-8.736407133e-3,-4.069018900e-2,4.174966754e-2
3.136216625e0,2.062308392e-4,-2.640026090e-2,-2.946178079e-2,3.956024309e-2
3.146148625e0,1.787185476e-2,-1.319546638e-2,-1.524193704e-2,2.694142109e-2
3.156080625e0,1.574284471e-2,-1.468071397e-2,-3.799637675e-2,4.367018627e-2
3.166012625e0,2.042091873e-2,-1.659606082e-2,-2.302984357e-2,3.496879825e-2
3.175944625e0,6.325979275e-3,-1.446145252e-2,-1.794042706e-2,2.389582696e-2
3.185876625e0,1.609630433e-2,-4.514534706e-3,-2.018634260e-2,2.620993064e-2
3.195808625e0,4.946015824e-3,-1.547412632e-2,-2.587568343e-2,3.055262101e-2
3.205740625e0,1.044400652e-2,-1.340090465e-2,-2.213346541e-2,2.790254126e-2
3.215673625e0,9.373596038e-3,-6.637713527e-3,-2.752401352e-2,2.982440048e-2
3.225605625e0,2.120037085e-2,-5.843762141e-3,-1.779483140e-2,2.828889012e-2
3.235537625e0,2.026044464e-2,-1.476770958e-2,-2.019043565e-2,3.219044198e-2
3.245469625e0,-7.591398968e-4,-2.386258758e-2,-1.450226426e-2,2.793411978e-2
3.255401625e0,4.467307020e-3,-1.588194220e-2,-1.345502794e-2,2.128921551e-2
3.265333625e0,1.455195874e-2,-4.744604370e-3,-1.554950058e-2,2.181874750e-2
3.275265625e0,3.380953737e-3,-1.482706795e-2,-1.734693468e-2,2.306922051e-2
3.285197625e0,9.013272794e-3,-1.362854406e-2,-1.824506700e-2,2.449201440e-2
3.295129625e0,-3.771783002e-3,-2.182284121e-2,-2.587919176e-2,3.406163988e-2
3.305061625e0,-1.377638269e-2,2.324999124e-4,-1.824565172e-2,2.286365200e-2
3.314994625e0,-3.051305534e-3,-1.967405342e-3,-2.154114246e-2,2.184495292e-2
3.324926625e0,1.174607410e-2,-4.942185441e-3,-1.944725454e-2,2.325061639e-2
3.334858625e0,3.820620957e-3,-1.522284223e-2,-1.959694326e-2,2.510721520e-2
3.344790625e0,2.246383309e-2,-2.355314196e-2,-2.782982290e-2,4.282374734e-2
3.354722625e0,4.758886651e-3,-1.997748736e-2,-2.588386953e-2,3.304121222e-2
3.364654625e0,9.167703241e-3,-1.640436351e-2,-2.318888783e-2,2.984751990e-2
3.374586625e0,1.133827649e-3,-1.913193430e-2,-1.914846182e-2,2.709206646e-2
3.384518625e0,4.415351311e-3,-6.380034043e-3,-3.516573966e-2,3.601151770e-2
3.394450625e0,1.376738117e-2,-1.353137065e-3,-3.007924676e-2,3.310789709e-2
3.404382625e0,9.362369841e-3,-1.435019097e-2,-1.915197015e-2,2.569785809e-2
3.414315625e0,1.675031540e-2,-2.743521807e-2,-2.648788691e-2,4.165179959e-2
3.424247625e0,1.209916370e-2,-6.619724203e-3,-2.379348993e-2,2.750164857e-2
3.434179625e0,2.063103020e-2,-5.711240480e-3,-2.199722528e-2,3.069422739e-2
3.444111625e0,7.737593064e-3,-4.354074318e-4,-3.337356806e-2,3.426156697e-2
3.454043625e0,1.116745099e-3,-6.656854022e-3,-3.337298334e-2,3.404874215e-2
3.463975625e0,4.702655165e-3,-8.217028202e-3,-2.693578362e-2,2.855119888e-2
3.473907625e0,7.659110182e-3,-1.850712276e-2,-3.786306024e-2,4.283441248e-2
3.483839625e0,7.416304552e-3,-1.292008993e-2,-1.675870478e-2,2.242285626e-2
3.493771625e0,5.795860654e-3,3.439980922e-3,-2.319590449e-2,2.415523659e-2
3.503703625e0,9.583369468e-3,-5.228233058e-4,-3.008100092e-2,3.157500485e-2
3.513636625e0,2.037150519e-2,-1.018793274e-2,-2.693578362e-2,3.527504269e-2
3.523568625e0,1.193867818e-2,-1.596695524e-2,-2.873146355e-2,3.497102649e-2
3.533500625e0,1.803678735e-2,-1.779701496e-2,-2.843325555e-2,3.808555449e-2
3.543432625e0,6.486923886e-3,-1.088114756e-2,-2.499041498e-2,2.801785849e-2
3.553364625e0,1.824238550e-2,-1.539560004e-2,-2.693578362e-2,3.599090953e-2
3.563296625e0,1.585304188e-2,-9.640934849e-3,-3.382029533e-2,3.857562622e-2
3.573228625e0,-1.282792320e-3,-1.476383580e-2,-1.855379999e-2,2.374573430e-2
3.583160625e0,2.904905872e-3,-1.674576782e-2,-1.780477166e-2,2.461440862e-2
3.593092708e0,2.059073695e-2,-2.071591761e-2,-1.600792229e-2,3.330737556e-2
3.603024708e0,1.160416491e-3,-9.051060425e-3,-2.019745231e-2,2.216315278e-2
3.612957708e0,2.207057815e-2,-1.168543207e-2,-2.004659414e-2,3.202382987e-2
3.622889708e0,-4.793012920e-3,-9.399070255e-3,-1.181371450e-2,1.583917122e-2
3.632821708e0,2.918491513e-3,-1.495422662e-2,-2.094297230e-2,2.589893001e-2
3.642753708e0,9.120950641e-3,-2.224190385e-2,-9.416940808e-3,2.581807122e-2
3.652685708e0,2.762939588e-2,-1.873182029e-2,-2.797951162e-2,4.355591439e-2
3.662617708e0,6.967578717e-3,-8.435111074e-3,-2.124410391e-2,2.389581978e-2
3.672549708e0,2.091910607e-2,-1.414422280e-2,-1.645348012e-2,3.013942676e-2
3.682481708e0,9.278448592e-3,-1.699971057e-2,-3.127090931e-2,3.678246235e-2
3.692413708e0,8.066871248e-3,-3.617250228e-2,-2.468402088e-2,4.452892565e-2
3.702345708e0,-9.039286051e-3,-2.696099974e-2,-1.974546254e-2,3.461917807e-2
3.712278708e0,1.221988814e-2,-1.484272753e-2,-2.962433338e-2,3.531619112e-2
3.722210708e0,-2.711920347e-4,-2.473529365e-2,-1.884791493e-2,3.109907064e-2
3.732142708e0,1.600685106e-2,-1.625072792e-2,-2.797834218e-2,3.609838043e-2
3.742074708e0,9.427264798e-5,-7.695483975e-4,-3.636207998e-2,3.637034441e-2
3.752006708e0,-8.288903274e-3,-1.697249360e-2,-1.884616077e-2,2.668237681e-2
3.761938708e0,4.462869074e-3,-2.438034939e-2,-2.438522816e-2,3.477007318e-2
3.771870708e0,1.356798427e-2,-5.240603574e-3,-3.276779652e-2,3.585083836e-2
3.781802708e0,1.338329676e-2,-1.455324467e-2,-1.570328236e-2,2.524881462e-2
3.791734708e0,2.071315160e-2,-1.980900533e-2,-3.651176870e-2,4.641702915e-2
3.801666708e0,1.600687162e-2,-1.228603248e-2,-2.723340690e-2,3.389432083e-2
3.811599708e0,2.308462467e-4,-2.030251033e-2,-4.190348625e-2,4.656336946e-2
3.821531708e0,2.418152578e-3,-6.066732919e-3,-3.127558708e-2,3.195019652e-2
3.831463708e0,1.583320703e-2,-6.743484177e-4,-2.094765007e-2,2.626688475e-2
3.841395708e0,1.945003197e-2,-1.551704854e-4,-1.541150630e-2,2.481617109e-2
3.851327708e0,1.210231343e-2,-8.268428883e-3,-1.810707271e-2,2.329590068e-2
3.861259708e0,-1.377019515e-2,-9.264474660e-3,-3.592061520e-2,3.956942457e-2
3.871191708e0,1.651348946e-2,-5.538263395e-3,-1.795972288e-2,2.501838007e-2
3.881123708e0,1.752130504e-2,-1.874672156e-3,-2.170135617e-2,2.795459507e-2
3.891055708e0,7.817882644e-3,-2.482085486e-2,-2.574412107e-2,3.660538068e-2
3.900987708e0,1.144474834e-2,-1.196820891e-2,-1.840937376e-2,2.476136772e-2
3.910920708e0,-5.043376533e-3,-1.083535655e-2,-2.349995971e-2,2.636453498e-2
3.920852708e0,2.609179058e-2,-4.216701295e-3,-2.215276122e-2,3.448632968e-2
3.930784708e0,1.468917645e-2,-1.824728712e-2,-3.068560302e-2,3.860494301e-2
3.940716708e0,-5.650858842e-3,-5.854698261e-3,-3.113408446e-2,3.217982152e-2
3.950648708e0,2.152228748e-2,-5.919045042e-3,-2.499626219e-2,3.351204375e-2
3.960580708e0,8.297546189e-3,-4.485207265e-3,-4.744898558e-2,4.837739750e-2
3.970512708e0,-1.410654481e-2,-7.843537303e-3,-2.574295163e-2,3.038445725e-2
3.980444708e0,1.028296598e-2,-1.000392817e-2,-2.574236691e-2,2.947011066e-2
3.990376708e0,-2.703834744e-4,-2.488014014e-2,-2.529388547e-2,3.548063025e-2
4.000308708e0,9.795315047e-3,-1.739731209e-2,-2.289711177e-2,3.037914404e-2
4.010241708e0,7.202591104e-3,-2.833089273e-2,-1.526474118e-2,3.297770649e-2
4.020173708e0,1.007058871e-2,-2.060913283e-2,-1.960454464e-2,3.017434811e-2
4.030105708e0,1.501156588e-2,-5.894093877e-3,-1.825617671e-2,2.435929886e-2
4.040037708e0,7.122746918e-3,-1.589465076e-2,-1.092025995e-2,2.055785796e-2
4.049969708e0,1.001639462e-3,-2.122828902e-2,-2.035123408e-2,2.942475598e-2
4.059901708e0,-1.000252347e-2,-1.925450656e-2,-2.259656489e-2,3.132716462e-2
4.069833708e0,1.332965084e-2,-1.220189653e-2,-2.589147091e-2,3.157426383e-2
4.079765708e0,1.564289843e-2,1.620400501e-3,-1.137224972e-2,1.940757669e-2
4.089697708e0,3.512347068e-3,5.423657969e-3,-2.289886594e-2,2.379308111e-2
4.099629708e0,-2.975412786e-3,7.608689368e-4,-1.751124144e-2,1.777851454e-2
4.109561708e0,1.653511959e-2,2.014283566e-3,-1.811058104e-2,2.460611029e-2
4.119494708e0,6.272860975e-3,4.938339069e-4,-2.559677124e-2,2.635881930e-2
4.129426708e0,5.468272681e-3,-3.428843804e-2,-2.724393189e-2,4.413423630e-2
4.139358708e0,6.944927608e-3,-3.504114828e-2,-1.497121096e-2,3.873307695e-2
4.149290708e0,1.078852630e-2,-2.842407360e-2,-2.320409060e-2,3.824591586e-2
4.159222708e0,3.228817180e-2,-2.230428633e-2,-1.317494631e-2,4.139548813e-2
4.169154708e0,8.492176244e-3,-6.484690066e-3,-3.547798097e-2,3.705206332e-2
4.179086708e0,6.906434200e-3,-1.107903927e-2,-3.098556519e-2,3.362364041e-2
4.189018708e0,-3.343746259e-3,-9.882552763e-3,-3.412727416e-2,3.568636055e-2
4.198950708e0,-1.413042474e-2,5.454967981e-3,-2.589380980e-2,2.999858271e-2
4.208882708e0,-6.896569307e-3,1.714071983e-2,-4.550303221e-2,4.911102610e-2
4.218815708e0,3.337862499e-3,5.118478993e-3,-2.484657347e-2,2.558695696e-2
4.228747708e0,9.337210825e-3,-2.131054290e-3,-4.550420165e-2,4.650115339e-2
4.238679708e0,1.512119661e-2,-1.524705335e-2,-3.442782104e-2,4.057583128e-2
4.248611708e0,5.185226330e-3,-1.759823704e-2,-5.179054320e-2,5.494401591e-2
4.258543708e0,1.987084648e-2,-8.688240694e-3,-2.215100706e-2,3.100005129e-2
4.268475708e0,2.440032128e-2,-1.701161513e-2,-2.095466673e-2,3.638500771e-2
4.278407708e0,1.698689237e-2,-5.707759559e-3,-2.991435528e-3,1.816815120e-2
4.288339708e0,1.282205086e-2,-1.870679604e-3,1.543664932e-4,1.295871364e-2
4.298271708e0,2.978219907e-3,-7.772045955e-4,-6.430767775e-3,7.129418978e-3
4.308203708e0,8.611977927e-3,-8.825083813e-3,1.003440678e-2,1.589772272e-2
4.318136708e0,-6.971797391e-3,-1.318980189e-2,-1.451571286e-2,2.081544505e-2
4.328068708e0,-6.388804866e-3,-1.211050638e-2,-9.875947237e-3,1.688240286e-2
4.338000708e0,1.337534135e-2,-5.210015327e-3,2.248839140e-3,1.452932529e-2
4.347932708e0,1.088706787e-2,-2.074375584e-2,-7.630616426e-3,2.463854622e-2
4.357864708e0,3.696536645e-5,-8.531169863e-3,-2.664225340e-2,2.797484391e-2
4.367796708e0,1.988077076e-2,-3.453639653e-3,-4.340388179e-3,2.064004948e-2
4.377728708e0,2.106473828e-2,-2.143903546e-2,-2.604291379e-2,3.976919410e-2
4.387660708e0,-2.039442582e-3,-3.313089947e-2,-4.130940914e-2,5.299323645e-2
4.397592708e0,1.398204251e-2,-2.953721900e-2,-2.035298824e-2,3.849920713e-2
4.407524708e0,2.808326315e-2,-1.057067868e-2,-3.322504878e-2,4.476955197e-2
4.417457708e0,1.612898250e-2,-7.360219248e-3,-2.065002680e-2,2.721654847e-2
4.427389708e0,1.967640144e-2,1.095646701e-2,-4.100652337e-2,4.678397056e-2
4.437321708e0,2.298152181e-3,-2.534452784e-2,-4.100593865e-2,4.826089099e-2
4.447253708e0,-8.538373816e-3,-1.949285368e-2,-2.049858391e-2,2.954770913e-2
4.457185708e0,1.652329497e-2,-3.638280105e-2,-3.651703119e-2,5.413151629e-2
4.467117708e0,1.929344079e-2,-1.989285805e-2,-3.382146478e-2,4.372475430e-2
4.477049708e0,3.204723911e-2,5.349288695e-4,-2.603648186e-2,4.129418931e-2
4.486981708e0,2.513237669e-2,8.232514188e-3,-4.594215810e-2,5.301030597e-2
4.496913708e0,3.486486843e-3,2.238177108e-2,-4.534223378e-2,5.068547554e-2
4.506845708e0,-2.995896314e-3,1.581509208e-2,-3.366534412e-2,3.731551858e-2
4.516777708e0,-4.387467401e-4,-3.331679525e-3,-4.339511096e-2,4.352503007e-2
4.526710708e0,4.324721752e-3,-9.795858655e-3,-1.630262196e-2,1.950480833e-2
4.536642708e0,1.096981511e-2,-7.185551953e-3,-3.591301382e-2,3.823236275e-2
4.546574708e0,1.160234451e-2,1.215501831e-2,-2.693286002e-2,3.174488647e-2
4.556506708e0,1.063994306e-2,7.400510218e-3,-3.846123040e-2,4.058623145e-2
4.566438708e0,5.684229084e-3,-5.074506104e-3,-2.064885736e-2,2.200991555e-2
4.576370708e0,2.512975230e-2,-6.305262772e-3,-1.241714716e-2,2.873058184e-2
4.586302708e0,2.417526743e-2,-4.766001524e-3,1.183184087e-2,2.733405906e-2
4.596234708e0,2.988071552e-2,-2.261375936e-2,-8.525240421e-3,3.843070382e-2
4.606166708e0,2.740233662e-3,-3.969879359e-2,-2.094881952e-2,4.497061410e-2
4.616098708e0,1.610990139e-3,-3.388793117e-2,-2.888173699e-2,4.455493127e-2
4.626030708e0,-2.263115482e-2,-2.336710000e-2,-1.047060907e-2,3.417344269e-2
4.635963708e0,-1.184877724e-2,-1.731273760e-2,-6.130220890e-3,2.185644101e-2
4.645895708e0,2.903428080e-3,-2.160245600e-2,-1.340766549e-3,2.183789493e-2
4.655827708e0,1.124878211e-2,-4.253747061e-2,-2.259890378e-2,4.946394603e-2
4.665759708e0,2.232313218e-2,-1.876211618e-2,-1.915547848e-2,3.488941945e-2
4.675691708e0,1.421130590e-2,2.298037978e-2,-1.661077023e-2,3.171713665e-2
4.685623708e0,4.370526464e-3,8.767424785e-3,-1.391812742e-2,1.702009136e-2
4.695555708e0,-1.034008368e-2,7.500451924e-3,-4.490427732e-2,4.668584616e-2
4.705487708e0,-6.037962791e-3,-1.337855732e-2,-4.310742795e-2,4.553782094e-2
4.715419708e0,-2.897655782e-2,-4.482301930e-3,-5.044334471e-2,5.834606207e-2
4.725351708e0,-2.483489275e-2,-6.304193828e-3,-5.972346067e-2,6.498774125e-2
4.735284708e0,-7.194854964e-3,-1.126432291e-2,-4.475575805e-2,4.670897973e-2
4.745216708e0,5.348898119e-3,-1.006101161e-2,-4.984692872e-2,5.113268004e-2
4.755148708e0,2.900756633e-2,-4.822838288e-3,-4.730222046e-2,5.569738535e-2
4.765080708e0,3.775243366e-2,4.129194058e-3,-3.068852663e-2,4.882706378e-2
4.775012708e0,4.346155909e-2,-4.634229038e-3,-2.859346926e-2,5.222996919e-2
4.784944708e0,2.981452549e-2,-8.525541918e-3,-3.682459474e-2,4.814189000e-2
4.794876708e0,1.921626440e-2,3.782125264e-3,-2.574821413e-2,3.235026769e-2
4.804808708e0,1.678314660e-2,-1.303700684e-3,-2.425132692e-2,2.952118735e-2
4.814740708e0,1.156951788e-2,-5.803635623e-4,-2.035942018e-2,2.342427279e-2
4.824672708e0,-2.124471604e-2,2.595049124e-3,-2.904195070e-2,3.607640697e-2
4.834604708e0,-4.584502580e-3,-2.186039130e-2,-1.527117312e-2,2.705740380e-2
4.844537708e0,8.406688124e-3,-2.254148229e-2,-1.272588015e-2,2.721651805e-2
4.854469708e0,-9.719579900e-3,-2.651464705e-2,2.543538809e-3,2.835430005e-2
4.864401708e0,1.913225864e-2,-2.518406745e-2,-2.604642212e-2,4.097190109e-2
4.874333708e0,2.286893550e-2,-8.544097692e-3,-6.586888433e-3,2.528590350e-2
4.884265708e0,1.069976282e-2,9.074540650e-3,-1.348952651e-3,1.409439199e-2
4.894197708e0,1.348440334e-2,1.488886571e-2,-2.545877695e-3,2.024818385e-2
4.904129708e0,1.486142948e-3,7.349337945e-3,2.095642090e-3,7.785441854e-3
4.914061708e0,-1.981498045e-4,1.556967348e-2,-1.646575928e-2,2.266219813e-2
4.923993708e0,-1.053807589e-3,-3.814860536e-3,-1.751416504e-2,1.795576923e-2
4.933925708e0,5.705783840e-3,4.258929156e-3,-8.083190918e-3,1.077183467e-2
4.943858708e0,7.510620598e-3,-8.192223217e-3,-2.335144043e-2,2.586139426e-2
4.953790708e0,1.603501363e-2,-2.151686738e-2,-3.323265016e-2,4.271423979e-2
4.963722708e0,3.346410397e-2,-1.489341558e-2,-4.161580324e-2,5.543947296e-2
4.973654708e0,1.783869236e-2,-4.710471248e-3,-2.619728029e-2,3.204223742e-2
4.983586708e0,1.667353643e-2,4.675022503e-3,-2.694513917e-2,3.202972334e-2
4.993518708e0,2.592326514e-3,-5.502960831e-4,-2.993774414e-2,3.005480838e-2
5.003450708e0,-7.593223939e-3,-5.667413771e-3,-3.921610594e-2,4.034451132e-2
5.013382708e0,5.549900725e-3,-3.036714904e-3,-3.203104734e-2,3.264982434e-2
5.023314708e0,-5.369548383e-4,-1.056706072e-2,-5.448377073e-2,5.550164291e-2
5.033246708e0,-7.608723629e-3,-3.331090235e-2,-3.158139646e-2,4.652841597e-2
5.043178708e0,3.599705840e-3,-2.420055664e-2,-4.161171019e-2,4.827172308e-2
5.053111708e0,-1.340328008e-3,-2.932949667e-2,-2.813855588e-2,4.066686835e-2
5.063043708e0,1.329082168e-2,-2.015527926e-2,-4.535158932e-2,5.137750361e-2
5.072975708e0,1.771747456e-3,-2.063285974e-2,-3.472369015e-2,4.043004635e-2
5.082907708e0,6.027718743e-3,-4.152875282e-3,-2.619084835e-2,2.719449032e-2
5.092839708e0,6.278093776e-3,6.890578195e-3,-1.855847776e-2,2.076804339e-2
5.102771708e0,-1.105984852e-3,2.116639989e-2,-2.454661131e-2,3.243109332e-2
5.112703708e0,1.377154046e-3,1.919980768e-2,-2.724042356e-2,3.335520715e-2
5.122635708e0,-2.829901627e-3,7.038439661e-3,-1.182190061e-2,1.404654086e-2
5.132567708e0,1.497399067e-2,-2.486025961e-2,-2.005478024e-2,3.527672200e-2
5.142499708e0,1.146683986e-2,3.265834395e-3,-2.484481931e-2,2.755756043e-2
5.152431708e0,2.440221934e-2,-1.005348332e-2,-2.394785643e-2,3.563762988e-2
5.162364708e0,1.393266095e-2,-2.492786804e-2,-4.937973619e-3,2.898104949e-2
5.172296708e0,1.658378852e-2,-3.348332212e-2,-1.451922119e-2,4.008693910e-2
5.182228708e0,1.557732282e-2,-2.684608368e-2,4.491831064e-3,3.136146906e-2
5.192160708e0,9.473085499e-3,-4.022261275e-2,7.037124038e-3,4.191800377e-2
5.202092708e0,2.573254541e-3,-2.941976306e-2,2.247084975e-3,2.961745243e-2
5.212024708e0,-7.589411829e-3,-1.305261159e-2,-9.279531240e-3,1.772228939e-2
5.221956708e0,-7.802711860e-3,-1.447270841e-2,-7.782059312e-3,1.819071324e-2
5.231888708e0,-4.060980349e-3,-2.399367484e-2,-1.646283567e-2,2.938048591e-2
5.241820708e0,8.011953102e-3,-1.010861160e-2,7.038293481e-3,1.469397823e-2
5.251752708e0,-8.413720771e-3,-1.499171276e-4,-6.731899381e-3,1.077643919e-2
5.261684708e0,-1.738604250e-2,3.392024618e-4,-2.424489498e-2,2.983629442e-2
5.271617708e0,-1.663786385e-3,-5.637994967e-5,-4.100886226e-2,4.104263816e-2
5.281549708e0,4.778020293e-4,5.422141347e-3,-5.133621454e-2,5.162397539e-2
5.291481708e0,-7.830451874e-3,-8.442127733e-3,-5.777224481e-2,5.890855428e-2
5.301413708e0,-4.169868752e-3,-6.572681526e-3,-3.591710687e-2,3.675087092e-2
5.311345708e0,3.636438232e-3,-1.595338787e-2,-5.328158319e-2,5.573743244e-2
5.321277708e0,1.352066293e-2,-2.226587743e-2,-5.358154535e-2,5.957818079e-2
5.331209708e0,1.172349151e-2,-2.336629601e-3,-2.603940547e-2,2.865223775e-2
5.341141708e0,2.669096573e-2,1.242173357e-2,-3.053065181e-2,4.241259030e-2
5.351073708e0,1.199330625e-2,1.099095644e-2,-2.619026363e-2,3.083132218e-2
5.361005708e0,3.016913171e-2,-8.209390277e-3,-2.199839473e-2,3.822956928e-2
5.370937708e0,2.102295582e-2,-1.778076153e-2,-2.389172316e-3,2.763744374e-2
5.380870708e0,9.173765159e-3,-2.442102408e-2,-2.929455042e-4,2.608889038e-2
5.390802708e0,5.279250015e-3,-2.280552062e-2,4.946744442e-3,2.392556232e-2
5.400734708e0,4.096145870e-3,-2.749552662e-2,-4.333956242e-3,2.813477513e-2
5.410666708e0,-1.340733887e-2,-3.270538663e-2,-1.331411004e-2,3.777121359e-2
5.420598708e0,-3.428923746e-3,-2.166950712e-2,-1.316383660e-2,2.558537963e-2
5.430530708e0,5.960009813e-3,-9.950727643e-3,-1.037880778e-3,1.164542374e-2
5.440462708e0,-4.206119205e-3,-1.125033528e-2,-4.030485749e-3,1.266910802e-2
5.450394708e0,1.121973104e-2,-1.877022919e-2,-2.887998283e-2,3.622509181e-2
5.460326708e0,8.773306261e-3,-2.031944898e-2,-2.393967032e-2,3.260304778e-2
5.470258708e0,-1.223855127e-2,1.773273214e-2,-3.232223868e-2,3.884532198e-2
5.480190708e0,-1.193331291e-2,1.599398034e-2,-3.456873894e-2,3.991502318e-2
5.490123708e0,-1.606039192e-2,2.079793395e-2,-4.818982780e-2,5.488852110e-2
5.500055708e0,7.237048564e-4,5.526907006e-3,-3.396939933e-2,3.442369156e-2
5.509987708e0,2.472725830e-3,4.769902714e-3,-3.621414542e-2,3.661052681e-2
5.519919708e0,1.259764797e-2,-2.068982441e-3,-3.830978751e-2,4.038095147e-2
5.529851708e0,1.192267828e-3,2.415539604e-4,-4.953878045e-2,4.955371449e-2
5.539783708e0,9.143165492e-3,-1.537388312e-2,-3.726722896e-2,4.133763554e-2
5.549715708e0,3.368344308e-2,-1.159969728e-2,-2.708722651e-2,4.475315804e-2
5.559647708e0,1.678754343e-2,-2.291244244e-2,-3.352325678e-2,4.393871161e-2
5.569579708e0,1.802386866e-2,-2.234475089e-2,-1.870348871e-2,3.426321969e-2
5.579511708e0,-3.359008406e-3,-2.295718278e-2,-2.109967768e-2,3.136098814e-2
5.589443708e0,1.322061626e-2,-1.315419783e-2,-8.525240421e-3,2.050603177e-2
5.599376583e0,6.256762859e-3,-9.018827649e-3,9.139198065e-3,1.428325155e-2
5.609308583e0,5.058069946e-5,-1.877772094e-2,-2.469162226e-2,3.102066362e-2
5.619240583e0,1.512236148e-2,-2.779719726e-2,-1.496244013e-2,3.500349421e-2
5.629172583e0,3.818007982e-3,-1.134282178e-2,-2.828415155e-2,3.071205008e-2
5.639104583e0,-1.156391962e-3,-1.355110500e-2,-5.981116891e-3,1.485743748e-2
5.649036583e0,-3.533084127e-3,-1.481328132e-2,-1.361524165e-2,2.042769669e-2
5.658968583e0,-6.207586862e-3,-6.560877459e-3,-1.181956172e-2,1.487552644e-2
5.668900583e0,-1.038188899e-2,6.827903353e-4,-1.181839228e-2,1.574560947e-2
5.678832583e0,-9.695302534e-3,3.922732528e-3,-3.382321894e-2,3.540334534e-2
5.688764583e0,-1.939969109e-3,1.202037703e-2,-2.139905512e-2,2.462057076e-2
5.698696583e0,3.367244757e-3,1.076093246e-2,-4.160820186e-2,4.310891401e-2
5.708629583e0,1.737222160e-2,3.569752565e-3,-2.604057491e-2,3.150632886e-2
5.718561583e0,4.297433984e-3,2.202536501e-3,-2.664049923e-2,2.707462475e-2
5.728493583e0,1.970815456e-3,-1.139428642e-2,-5.133913815e-2,5.262528843e-2
5.738425583e0,-6.615690538e-4,-1.620210467e-2,-2.768773556e-2,3.208670394e-2
5.748357583e0,1.488222593e-2,-1.777074818e-2,-5.982286334e-3,2.393883642e-2
5.758289583e0,2.967434992e-2,-3.512826266e-2,-1.541150630e-2,4.849821034e-2
5.768221583e0,1.876114088e-2,-1.367796217e-2,-4.459788322e-2,5.027960068e-2
5.778153583e0,1.608469441e-2,-1.535722769e-2,-2.154582024e-2,3.096424076e-2
5.788085583e0,-4.025853658e-3,-3.028190760e-2,-1.151667595e-2,3.264713235e-2
5.798017583e0,1.030729131e-2,-1.896192650e-2,-2.214574456e-2,3.092295124e-2
5.807949583e0,-9.773785416e-3,-9.090784946e-3,-1.361290276e-2,1.906516126e-2
5.817882583e0,-1.748971637e-2,-8.865667144e-3,-1.316500604e-2,2.361795116e-2
5.827814583e0,-2.515048936e-2,-3.879088545e-3,-2.079796135e-2,3.286563006e-2
5.837746583e0,2.117046097e-3,8.005276769e-3,-1.825032949e-2,2.004097969e-2
5.847678583e0,7.378126346e-3,-4.253703207e-3,-1.301063955e-2,1.555016015e-2
5.857610583e0,-7.431059636e-3,-4.877363574e-3,-4.160060048e-2,4.253962016e-2
5.867542583e0,4.665121066e-3,-2.127500279e-3,-4.115211904e-2,4.147030882e-2
5.877474583e0,6.373394255e-3,4.477021163e-3,-3.262103140e-2,3.353797195e-2
5.887406583e0,3.127787572e-3,7.231671866e-3,-5.073336661e-2,5.134154868e-2
5.897338583e0,-7.924722238e-3,6.217782944e-3,-2.857943594e-2,3.030257755e-2
5.907270583e0,-2.028111317e-3,2.290217327e-3,-4.265192986e-2,4.276149496e-2
5.917202583e0,8.974544127e-3,-1.196753282e-2,-2.199430168e-2,2.659912762e-2
5.927135583e0,1.799861371e-2,1.992941229e-3,-5.229164958e-3,1.884850330e-2
5.937067583e0,1.630206236e-2,-1.602359100e-2,-2.154523551e-2,3.141193848e-2
5.946999583e0,9.111839491e-3,-2.416487949e-2,-1.420990348e-2,2.947691260e-2
5.956931583e0,1.359979677e-2,-2.525742260e-2,-4.329278469e-3,2.901093795e-2
5.966863583e0,9.530244316e-3,-2.756759355e-2,-3.580250144e-3,2.938734357e-2
5.976795583e0,1.967823098e-2,-3.090821749e-2,3.305431008e-3,3.678962567e-2
5.986727583e0,-1.664903294e-3,-3.054776405e-2,9.144460559e-3,3.193053320e-2
5.996659583e0,-1.483019713e-2,-3.229864882e-2,-3.877873421e-3,3.575157850e-2
6.006591583e0,-3.574570122e-2,-1.887024399e-3,4.207071662e-3,3.604185718e-2
6.016523583e0,-2.432387807e-2,6.590488125e-3,-2.617856920e-2,3.633735080e-2
6.026455583e0,-8.313468432e-3,8.461469226e-3,-1.869354844e-2,2.213953414e-2
6.036388583e0,-1.512973674e-2,7.052043574e-3,-9.261989594e-3,1.908991104e-2
6.046320583e0,6.846788032e-3,1.299171832e-2,-3.680412948e-2,3.962584003e-2
6.056252583e0,6.409754343e-3,1.871739412e-2,-2.527868271e-2,3.210042979e-2
6.066184583e0,2.605693112e-2,6.378471740e-3,-3.725319564e-2,4.590696186e-2
6.076116583e0,6.267893126e-3,4.691751022e-4,-4.069486678e-2,4.117740632e-2
6.086048583e0,1.232698127e-3,-4.645192567e-3,-4.832723737e-2,4.856561778e-2
6.095980583e0,-6.468989379e-3,-2.150692712e-2,-2.497696638e-2,3.358935229e-2
6.105912583e0,-1.069490004e-2,-3.126033864e-2,-5.626132429e-2,6.524512449e-2
6.115844583e0,-8.229887509e-4,-3.226352898e-2,-3.695206404e-2,4.906187572e-2
6.125776583e0,7.546174410e-4,-3.597398018e-2,-4.144272566e-2,5.488347845e-2
6.135708583e0,3.523806240e-3,-2.354974327e-2,-4.743085921e-2,5.307253549e-2
6.145640583e0,3.573101694e-2,-3.118722104e-3,-3.231288314e-2,4.827581606e-2
6.155573583e0,3.010285489e-2,-1.230260569e-2,-7.465724945e-3,3.336574633e-2
6.165505583e0,-3.002182071e-3,-1.853265865e-2,-2.228607774e-2,2.914003766e-2
6.175437583e0,1.182316141e-3,-7.956690062e-4,-8.514130712e-3,8.632576811e-3
6.185369583e0,-2.189531014e-3,-8.457549764e-3,-1.824506700e-2,2.022885721e-2
6.195301583e0,-1.558132451e-2,-7.575049605e-3,-1.764572740e-2,2.472914769e-2
6.205233583e0,-1.943228018e-2,-1.252329240e-2,3.163343668e-4,2.312026023e-2
6.215165583e0,-3.444182010e-2,-3.633368444e-3,-6.568177342e-3,3.525026654e-2
6.225097583e0,-3.463299664e-2,4.550559036e-3,-1.494957626e-2,3.799528752e-2
6.235029583e0,-1.263319493e-2,8.179003028e-3,-4.471365809e-3,1.569989862e-2
6.244961583e0,7.058507488e-3,1.405879864e-2,1.334334612e-2,2.062806905e-2
6.254893583e0,2.871621511e-2,-1.922726219e-2,-2.373384833e-3,3.464017288e-2
6.264826583e0,1.286068131e-2,1.203567116e-2,-1.195346296e-2,2.128708013e-2
6.274758583e0,1.835795024e-3,-6.784478640e-3,-8.809999824e-3,1.127011050e-2
6.284690583e0,-3.421331502e-3,-1.938505478e-2,-1.884031355e-2,2.724781226e-2
6.294622583e0,4.612927814e-4,-1.519143172e-2,-2.033720076e-2,2.538885825e-2
6.304554583e0,2.039216459e-5,-3.596445104e-2,-3.515696883e-2,5.029368362e-2
6.314486583e0,9.502760118e-3,-1.191192945e-2,-2.916766584e-2,3.290819417e-2
6.324418583e0,-5.392398206e-3,-2.343808886e-2,-1.674350202e-2,2.930472364e-2
6.334350583e0,2.063015540e-2,-2.360255093e-2,-3.889860213e-2,4.995783192e-2
6.344282583e0,1.787526487e-2,-2.830161097e-2,-2.841980696e-2,4.391117973e-2
6.354214583e0,1.537375293e-2,-2.981525411e-2,-3.530548811e-2,4.870091526e-2
6.364146583e0,-7.093060878e-3,-2.532061821e-2,-3.470673323e-2,4.354311140e-2
6.374079583e0,-2.213198533e-3,-3.185613337e-2,-2.602303326e-2,4.119356432e-2
6.384011583e0,1.408265345e-3,-3.484931393e-2,-1.988404155e-2,4.014764004e-2
6.393943583e0,-6.737107057e-3,-9.140577642e-3,-4.068785012e-2,4.224263153e-2
6.403875583e0,3.558667980e-3,-1.960818088e-3,-3.933831275e-2,3.954758874e-2
6.413807583e0,9.832061143e-3,6.884082304e-3,-2.766200781e-2,3.015371771e-2
6.423739583e0,-6.021755040e-3,4.238034496e-3,-2.646566749e-2,2.747096696e-2
6.433671583e0,2.913740650e-3,1.115365522e-2,-3.679477394e-2,3.855838817e-2
6.443603583e0,9.579059430e-3,-9.214270832e-3,-2.063014627e-2,2.454106969e-2
6.453535583e0,-1.049885158e-2,-8.129091561e-3,-1.703995585e-2,2.160250239e-2
6.463467583e0,1.213424471e-2,-1.325778491e-2,-1.763929546e-2,2.518240456e-2
6.473399583e0,5.187188345e-3,-2.814462237e-2,-2.153237164e-2,3.581437867e-2
6.483331583e0,9.291952006e-3,-1.849543747e-2,-4.916338921e-3,2.127420897e-2
6.493264583e0,3.194960888e-2,-6.063891537e-3,-9.555519819e-3,3.389478200e-2
6.503196583e0,1.237040598e-2,-2.168997237e-3,-3.118904829e-3,1.294059738e-2
6.513128583e0,1.895768956e-2,-7.333952459e-3,-2.153003275e-2,2.960951135e-2
6.523060583e0,-5.148953036e-3,2.318411870e-3,-1.299719095e-2,1.417087589e-2
6.532992583e0,-1.439126766e-2,-1.972666008e-2,-9.104699492e-3,2.606041550e-2
6.542924583e0,-3.822557847e-3,-3.410647086e-2,-2.108038187e-2,4.027711264e-2
6.552856583e0,5.639479612e-3,-2.915446392e-2,-3.260641336e-2,4.410175381e-2
6.562788583e0,-2.056886014e-3,-4.458602434e-3,-4.173742533e-2,4.202526132e-2
6.572720583e0,-3.745575598e-4,5.091006216e-4,-3.350454569e-2,3.351050669e-2
6.582652583e0,-3.397115807e-3,4.713349175e-3,-9.105284214e-3,1.080103036e-2
6.592584583e0,7.976828695e-3,-2.057534689e-3,-3.066046000e-2,3.174786689e-2
6.602518083e0,7.711908713e-3,6.384191047e-3,-3.784610331e-2,3.914791140e-2
6.612450083e0,-1.981969477e-2,-7.721156906e-4,-3.664917827e-2,4.167227773e-2
6.622382083e0,1.442033015e-3,-1.506652971e-2,-4.353544414e-2,4.609137309e-2
6.632314083e0,1.616087723e-2,-2.270069101e-2,-4.233793437e-2,5.068526425e-2
6.642246083e0,-9.185496136e-3,-2.212321451e-2,-3.649773538e-2,4.365655332e-2
6.652178083e0,-5.580141793e-3,-2.256336367e-2,-2.437294900e-2,3.367913309e-2
6.662110083e0,5.742242143e-3,-2.287339401e-3,-3.410330057e-2,3.465891482e-2
6.672042083e0,1.616851744e-2,-8.497064151e-3,-1.898532450e-2,2.634508686e-2
6.681974083e0,1.763408093e-2,-4.903438501e-5,-2.003197610e-2,2.668788641e-2
6.691906083e0,3.549122857e-3,-1.421836367e-2,-2.646742165e-2,3.025363693e-2
6.701838083e0,3.484287285e-3,-1.550306090e-2,-1.793399513e-2,2.396066227e-2
6.711770083e0,2.544294836e-3,-1.984905875e-2,-1.329539895e-2,2.402553231e-2
6.721703083e0,1.266136206e-2,-1.813653720e-2,-2.646859109e-2,3.449391809e-2
6.731635083e0,3.185298136e-3,-1.552259426e-2,-9.704039097e-3,1.858131942e-2
6.741567083e0,-1.404311165e-2,-1.163573074e-2,9.244447947e-4,1.826071776e-2
6.751499083e0,-1.856500106e-2,-2.106203623e-2,-2.332337379e-2,3.649997808e-2
6.761431083e0,-3.793109350e-3,-4.824227002e-3,-1.269605935e-2,1.410144559e-2
6.771363083e0,-4.416698911e-3,-5.298856460e-4,1.674642563e-3,4.753150091e-3
6.781295083e0,1.035048533e-3,-7.841728320e-3,-3.694387794e-2,3.778113478e-2
6.791227083e0,-8.876093917e-3,-6.232958296e-3,-2.631597877e-2,2.846340722e-2
6.801159083e0,1.556698285e-2,-2.415298406e-2,-9.100021720e-3,3.014146628e-2
6.811091083e0,2.588045485e-2,-1.601704943e-2,-2.451679051e-2,3.908218050e-2
6.821023083e0,2.105929535e-2,-1.241217703e-3,-2.676153660e-2,3.407659583e-2
6.830956083e0,3.070626471e-3,4.101474602e-3,-2.242173314e-2,2.299967299e-2
6.840888083e0,3.985320576e-3,-9.775621807e-3,-2.945593357e-2,3.129053506e-2
6.850820083e0,-5.015220819e-3,6.477454137e-3,-2.107102633e-2,2.260747669e-2
6.860752083e0,1.080885222e-2,-1.439686820e-2,-2.181830049e-2,2.828673428e-2
6.870684083e0,5.193526635e-3,-3.216373346e-2,-2.211650848e-2,3.937789248e-2
6.880616083e0,8.760136322e-3,-1.829935474e-2,-3.364195526e-2,3.928597111e-2
6.890548083e0,2.195600927e-2,-1.044270689e-2,-3.064759612e-2,3.912022007e-2
6.900480083e0,1.054068658e-2,1.656945599e-3,-4.756183684e-2,4.874402390e-2
6.910412083e0,1.631882514e-3,-1.639249549e-2,-1.178506315e-2,2.025499105e-2
6.920344083e0,4.646252375e-5,-1.544002061e-2,-3.453657925e-2,3.783083004e-2
6.930276083e0,-1.452760829e-2,-1.913777238e-2,-3.423778653e-2,4.182740442e-2
6.940208083e0,-7.869989101e-3,-1.987147917e-2,-2.630428433e-2,3.389288697e-2
6.950141083e0,1.392086145e-2,-1.226258880e-2,-1.867132902e-2,2.632071418e-2
6.960073083e0,2.518030331e-3,-7.422345914e-3,-1.013790250e-2,1.281439670e-2
6.970005083e0,-7.038896475e-3,8.834210951e-3,-3.573350430e-2,3.747629485e-2
6.979937083e0,5.434367966e-3,1.961274901e-3,-1.851754725e-2,1.939789964e-2
6.989869083e0,2.542942667e-3,-3.619499579e-3,-6.691553593e-3,8.021485155e-3
6.999801083e0,-7.804255891e-3,-1.489261159e-2,-9.985874891e-3,1.955540813e-2
7.009733083e0,1.471335331e-3,-2.159419681e-2,-1.357781947e-2,2.555056447e-2
7.019665083e0,-1.497736881e-3,-8.058906700e-3,-1.806965053e-2,1.984191178e-2
7.029597083e0,-8.277204274e-3,-1.997234364e-2,-1.881692469e-2,2.866152955e-2
7.039529083e0,2.651890456e-3,-7.122255843e-3,-2.390634120e-2,2.508529850e-2
7.049461083e0,1.920760092e-3,-2.293047745e-2,-2.959392786e-2,3.748728693e-2
7.059394083e0,2.519855530e-2,-2.220977157e-2,-3.378462732e-2,4.764076181e-2
7.069326083e0,1.376567041e-2,-1.204160060e-2,-1.956419885e-2,2.678155528e-2
7.079258083e0,-9.545853641e-4,-2.186612888e-2,-3.333439171e-2,3.987756884e-2
7.089190083e0,1.063174554e-2,-2.117212834e-2,-3.198777795e-2,3.980591627e-2
7.099122083e0,-2.799260847e-3,-2.333102999e-3,-2.646449804e-3,4.503657121e-3
7.109054083e0,-7.529041611e-3,-1.431641417e-2,-3.453014731e-2,3.813105369e-2
7.118986083e0,-1.471641397e-2,-2.211106326e-2,-2.824322104e-2,3.877049772e-2
7.128918083e0,-9.599305415e-3,-1.490351116e-2,-2.809353232e-2,3.321908891e-2
7.138850083e0,-4.609784936e-3,-3.414988643e-2,-2.974127769e-2,4.551931963e-2
7.148782083e0,3.531766220e-3,-4.804122630e-2,-3.542769492e-2,5.979593936e-2
7.158714083e0,1.689389652e-2,-2.798348590e-2,-2.719481528e-2,4.252102069e-2
7.168646083e0,1.496939969e-2,-1.545232717e-2,-2.135812461e-2,3.031545528e-2
7.178579083e0,-4.292833870e-3,-5.311354883e-3,-3.977159142e-2,4.035366647e-2
7.188511083e0,-3.775291331e-4,-2.267870000e-3,-2.106108606e-2,2.118620090e-2
7.198443083e0,-1.719651962e-2,1.540277202e-2,-1.522264123e-2,2.765310975e-2
7.208375083e0,-1.600053561e-2,-4.609031193e-3,-2.540205896e-2,3.037309513e-2
7.218307083e0,-1.872069460e-2,4.024629397e-3,-1.956361413e-2,2.737511727e-2
7.228239083e0,-5.424747469e-3,9.134812653e-3,-8.336960077e-3,1.350472475e-2
7.238171083e0,2.309535979e-4,8.968294915e-3,-2.240769982e-2,2.413687355e-2
7.248103083e0,8.686244418e-4,-2.474103123e-4,-2.510268152e-2,2.511892394e-2
7.258035083e0,7.328091539e-4,3.808090556e-3,-1.941451013e-2,1.979802431e-2
7.267967083e0,2.738148307e-3,1.371898404e-2,-2.599905968e-2,2.952387311e-2
7.277899083e0,-6.754813157e-3,-7.086194968e-3,-2.674750328e-2,2.848281221e-2
7.287831083e0,1.524551846e-3,-3.984364009e-2,-4.501011193e-2,6.013110750e-2
7.297764083e0,3.768288377e-3,-4.538577726e-2,-6.539525986e-3,4.600906623e-2
7.307696083e0,1.024512125e-2,-4.162916047e-2,-2.749594688e-2,5.093109665e-2
7.317628083e0,1.144377762e-3,-3.191391117e-2,-1.387544274e-2,3.481860477e-2
7.327560083e0,-4.975318140e-4,-3.606430138e-2,-4.306532800e-2,5.617387158e-2
7.337492083e0,6.620167312e-4,-3.290526090e-2,-3.153929651e-2,4.558422628e-2
7.347424083e0,8.643589437e-3,-2.577711216e-2,-2.345493615e-2,3.590689599e-2
7.357356083e0,1.032064169e-2,-3.049597051e-2,-2.554940879e-2,4.110099940e-2
7.367288083e0,9.527325276e-3,-9.595472747e-3,-2.465069175e-2,2.811582522e-2
7.377220083e0,8.086185332e-3,-1.090134786e-2,-2.105582356e-2,2.505141682e-2
7.387152083e0,-1.638087415e-2,1.543710614e-3,-1.491858602e-2,2.220991421e-2
7.397084083e0,-1.367002275e-2,1.369437092e-2,-2.390224814e-2,3.075260612e-2
7.407016083e0,-1.473976172e-2,1.145282253e-2,-7.004964352e-4,1.867935798e-2
7.416949083e0,-1.129710158e-2,-4.879318736e-4,-3.243392050e-2,3.434853390e-2
7.426881083e0,-7.471277516e-3,4.761150163e-3,-3.408049643e-2,3.521319036e-2
7.436813083e0,1.526258045e-3,-1.474658651e-3,-1.222652793e-2,1.240935401e-2
7.446745083e0,1.028398239e-2,1.512401515e-2,-3.497921348e-2,3.947203445e-2
7.456677083e0,1.149480142e-2,5.043725995e-3,-2.210539877e-2,2.542082388e-2
7.466609083e0,1.290913554e-2,-1.045496777e-2,-1.596874595e-3,1.668838338e-2
7.476541083e0,-5.321057606e-4,-2.646723893e-3,-1.177453816e-2,1.208006758e-2
7.486473083e0,1.563798997e-3,-1.743053159e-2,-2.000800252e-2,2.658174305e-2
7.496405083e0,-2.237108164e-4,-1.006390781e-2,-2.345142782e-2,2.552061429e-2
7.506337083e0,-1.444579295e-2,-1.583861799e-2,-2.479921103e-2,3.278023217e-2
7.516269083e0,1.310141757e-4,-1.683886645e-2,-3.333146811e-2,3.734369229e-2
7.526201083e0,-1.772446153e-2,-3.034848363e-2,-2.120609701e-2,4.104735735e-2
7.536134083e0,-6.134409872e-3,-1.910066997e-2,-1.716508627e-2,2.640277948e-2
7.546066083e0,-3.287325196e-3,-4.124060386e-2,-2.644637167e-2,4.910198049e-2
7.555998083e0,1.674269118e-2,-4.824293696e-2,-2.390224814e-2,5.638276457e-2
7.565930083e0,1.536516940e-2,-4.684108528e-2,-2.794267416e-2,5.666541044e-2
7.575862083e0,6.444371687e-3,-3.399566612e-2,-2.794092000e-2,4.447392777e-2
7.585794083e0,7.169161476e-3,-2.128871634e-2,-2.944014609e-2,3.703145313e-2
7.595725958e0,2.253219984e-3,-8.142832518e-3,-1.911279380e-2,2.089692821e-2
7.605657958e0,4.433457123e-3,-1.423665449e-2,-2.001151085e-2,2.495592995e-2
7.615589958e0,-1.030756768e-3,-1.191342780e-3,-2.390400231e-2,2.395585698e-2
7.625521958e0,9.726480071e-3,2.528722513e-2,-2.959217370e-2,4.012162650e-2
7.635453958e0,1.100423145e-2,1.719060388e-2,-2.540264368e-2,3.258687278e-2
7.645386958e0,-7.584441695e-3,1.310345496e-2,-1.537466884e-2,2.157787593e-2
7.655318958e0,-2.922444550e-2,-2.152067721e-3,-4.895873666e-3,2.970974906e-2
7.665250958e0,1.419217454e-3,-1.343215071e-3,-2.315789759e-2,2.324019419e-2
7.675182958e0,-1.360475777e-2,-9.027918242e-3,-1.298023403e-2,2.085855262e-2
7.685114958e0,6.586803922e-3,-1.600206594e-2,-6.993854642e-3,1.866456812e-2
7.695046958e0,-1.115379226e-3,-3.574179090e-2,-1.881984830e-2,4.040923629e-2
7.704978958e0,-1.764503304e-2,-3.075108270e-2,-3.154338956e-2,4.745483856e-2
7.714910958e0,-3.649343220e-3,-1.475108156e-2,-3.812852383e-2,4.104505381e-2
7.724842958e0,2.914752492e-3,-2.344371680e-2,-2.929630458e-2,3.763478579e-2
7.734774958e0,1.526951945e-2,-3.818417287e-2,-2.271117032e-2,4.697857532e-2
7.744706958e0,1.961259141e-2,-2.738020856e-2,-2.046467006e-2,3.940979933e-2
7.754638958e0,1.486920902e-2,-2.644827202e-2,-3.213863611e-2,4.419837555e-2
7.764571958e0,1.345434729e-2,-2.443206070e-2,-2.660249233e-2,3.854397034e-2
7.774503958e0,1.512327511e-2,-2.135776830e-2,-3.543529630e-2,4.405142382e-2
7.784435958e0,4.539401361e-3,-3.017629227e-3,3.482016921e-3,6.468128996e-3
7.794367958e0,8.004073065e-3,-9.703271650e-4,-2.810288787e-2,2.923660423e-2
7.804299958e0,-1.093045832e-2,-1.086377950e-2,-2.450977385e-2,2.895212666e-2
7.814231958e0,-1.073166898e-2,-5.478365980e-3,-2.391043425e-2,2.677480306e-2
7.824163958e0,-1.379205825e-2,-4.690965302e-3,-8.790704012e-3,1.701477309e-2
7.834095958e0,1.263261706e-2,3.647895120e-3,-7.295570970e-3,1.503713764e-2
7.844027958e0,6.612744089e-3,-8.021183023e-3,-1.717678070e-2,2.007758842e-2
7.853959958e0,4.524244282e-3,1.855458571e-3,-1.553020477e-2,1.628185411e-2
7.863891958e0,-8.620180017e-3,1.622328255e-3,-1.867425263e-2,2.063170288e-2
7.873823958e0,5.926335789e-3,7.290290203e-3,-2.107044160e-2,2.307018198e-2
7.883756958e0,-1.828577596e-2,-7.907116637e-3,-3.274440765e-2,3.832868806e-2
7.893688958e0,-4.750300837e-3,-2.484851036e-2,-2.331518769e-2,3.440365972e-2
7.903620958e0,-2.089509366e-2,-2.880319244e-2,-2.451328218e-2,4.321029781e-2
7.913552958e0,-2.307341903e-2,-2.572998726e-2,-4.097845674e-2,5.360642523e-2
7.923484958e0,2.707285972e-3,-1.364167289e-2,-1.807608247e-2,2.280722241e-2
7.933416958e0,1.026880704e-2,-3.079367601e-2,-3.439098358e-2,4.729099948e-2
7.943348958e0,1.078208979e-2,-1.811604453e-2,-2.420981169e-2,3.210232876e-2
7.953280958e0,2.229895303e-2,-2.415092840e-2,-2.765206754e-2,4.295517999e-2
7.963212958e0,3.106424678e-3,-2.841678285e-2,-2.540556729e-2,3.824403576e-2
7.973144958e0,2.910650305e-3,-1.849800476e-2,-3.393782437e-2,3.876111438e-2
7.983076958e0,-2.701482153e-4,-7.872983515e-3,-4.291973233e-2,4.363668494e-2
7.993008958e0,9.558630721e-3,-4.384790473e-3,-2.196389616e-2,2.435172567e-2
8.002941958e0,2.482115636e-3,9.472763445e-4,-2.480856657e-2,2.495041494e-2
8.012873958e0,-3.024607056e-3,-2.816411918e-3,-1.313226163e-2,1.376723355e-2
8.022805958e0,-3.526722996e-3,1.711141979e-3,-1.208444059e-2,1.270430975e-2
8.032737958e0,5.817680361e-3,-1.424535222e-2,2.284507155e-3,1.555617041e-2
8.042669958e0,5.160124416e-3,-1.122733927e-2,-2.959743619e-2,3.207317041e-2
8.052601958e0,3.811059846e-4,-7.764234440e-3,-2.121545255e-2,2.259477827e-2
8.062533958e0,-6.260588674e-3,7.612956008e-3,-2.151424527e-2,2.366463225e-2
8.072465958e0,-1.625896656e-2,1.203907899e-2,-1.597517788e-2,2.577789217e-2
8.082397958e0,-1.439395601e-2,1.495705887e-2,-9.687666893e-3,2.290743262e-2
8.092329958e0,8.545584620e-3,9.698091382e-3,-2.914661586e-2,3.188424704e-2
8.102261958e0,3.390683869e-3,-1.130085887e-2,-9.087742567e-3,1.489272350e-2
8.112193958e0,-1.211057490e-2,-8.585000793e-3,-3.663046718e-2,3.952416209e-2
8.122126958e0,-7.774039947e-3,-1.626096055e-2,-2.166101038e-2,2.817896212e-2
8.132058958e0,-7.859925495e-3,-2.985798446e-2,-3.558206141e-2,4.711009190e-2
8.141990958e0,-1.262073533e-3,-2.265863674e-2,-4.037268519e-2,4.631371674e-2
8.151922958e0,1.758038476e-2,-3.290129576e-2,2.288015485e-3,3.737379036e-2
8.161854958e0,4.574429838e-3,-1.288030146e-2,-2.001501918e-2,2.423692569e-2
8.171786958e0,7.519841383e-3,-1.598350103e-2,-3.153988123e-2,3.614947341e-2
8.181718958e0,-1.037574713e-3,-1.587798620e-2,-2.764738977e-2,3.189929730e-2
8.191650958e0,1.517148723e-2,-3.790424656e-2,-5.249513268e-2,6.650296901e-2
8.201582958e0,-3.035207419e-4,-1.421160283e-2,-1.881575525e-2,2.358165442e-2
8.211514958e0,-6.483321909e-3,-1.145008164e-2,-1.821758509e-2,2.247261086e-2
8.221446958e0,-1.232807077e-2,-1.464418715e-2,-6.840657592e-3,2.032801373e-2
8.231378958e0,2.860279740e-3,-7.043236205e-3,-3.962365687e-2,4.034628310e-2
8.241311958e0,5.034475517e-3,-1.371016754e-3,-1.492443323e-2,1.581026053e-2
8.251243958e0,-1.452811535e-2,7.421697238e-3,-3.198836267e-2,3.590825910e-2
8.261175958e0,-8.777065838e-3,6.061214609e-3,-7.289723754e-3,1.291956964e-2
8.271107958e0,1.412209931e-3,8.752550930e-4,-2.839641809e-2,2.844498144e-2
8.281039958e0,-8.169227215e-3,3.206677018e-3,-1.597283900e-2,1.822500031e-2
8.290971958e0,-1.650626952e-2,-6.993799824e-3,-1.792054653e-2,2.534790243e-2
8.300903958e0,2.512977971e-3,-2.669756440e-3,-2.600432217e-2,2.626151994e-2
8.310835958e0,6.886215624e-4,-8.317234861e-3,-1.081734896e-4,8.346394245e-3
8.320767958e0,3.367075736e-3,-7.059462229e-3,-1.867015958e-2,2.024223468e-2
8.330699958e0,4.731642280e-3,-4.890026450e-3,-1.118513882e-2,1.309229269e-2
8.340631958e0,-3.137727838e-3,-7.062367564e-3,-2.600432217e-2,2.712834575e-2
8.350563958e0,-3.418962923e-3,-1.301476001e-2,-1.971973479e-2,2.387344185e-2
8.360496958e0,-2.043478531e-3,-2.648316345e-2,4.977149963e-3,2.702417016e-2
8.370428958e0,-1.128883097e-2,-1.586090136e-2,-7.744052410e-3,2.095175994e-2
8.380360958e0,-7.130517319e-3,-1.226702903e-2,-1.552786589e-2,2.103423157e-2
8.390292958e0,3.469194160e-3,-1.676058685e-2,-1.343222380e-2,2.175723365e-2
8.400224958e0,7.717797041e-3,-1.739387685e-2,-1.867132902e-2,2.665951745e-2
8.410156958e0,-7.701954741e-3,-9.590785839e-3,-1.807257414e-2,2.186140928e-2
8.420088958e0,-1.601027031e-3,-4.580635652e-3,-2.196331143e-2,2.249294466e-2
8.430020958e0,4.043370180e-3,-1.644823590e-2,-3.453599453e-2,3.846593590e-2
8.439952958e0,1.122099641e-2,-2.045175137e-2,-2.420571864e-2,3.361698543e-2
8.449884958e0,-1.154276001e-2,-4.026803831e-3,-4.246891201e-2,4.419342649e-2
8.459816958e0,1.311055385e-4,-1.333906121e-2,-3.573467374e-2,3.814334345e-2
8.469748958e0,-2.191483665e-2,-4.572422141e-3,-3.902957976e-2,4.499416857e-2
8.479681958e0,-1.431522188e-2,3.236333365e-3,-3.199596405e-2,3.520143671e-2
8.489613958e0,1.855542624e-2,-6.057432191e-3,-2.376249969e-2,3.075146695e-2
8.499545958e0,8.237865760e-3,-3.043621927e-3,-2.181654632e-2,2.351781793e-2
8.509477958e0,4.467715868e-3,-1.659898443e-2,-1.582958221e-2,2.336797900e-2
8.519409958e0,-3.640768826e-3,-6.870204303e-3,-3.034763396e-2,3.132784371e-2
8.529341958e0,2.614024481e-2,-8.739805827e-3,-2.510969818e-2,3.728529934e-2
8.539273958e0,2.833606387e-3,-1.257659342e-2,-1.493086517e-2,1.972639759e-2
8.549205958e0,1.477454351e-3,-2.650372007e-2,-2.181654632e-2,3.435974014e-2
8.559137958e0,-1.502549413e-3,-1.233155854e-2,-2.660833955e-2,2.936543417e-2
8.569069958e0,9.952134630e-3,-1.146247957e-2,-4.004758000e-3,1.569941108e-2
8.579001958e0,-1.253272788e-2,-4.357783645e-3,-1.597751677e-2,2.076874066e-2
8.588933958e0,-5.414941963e-3,-2.218258202e-2,-1.478000700e-2,2.719994759e-2
8.598866333e0,-1.116984470e-2,-1.972052964e-2,-1.912214935e-2,2.965335252e-2
8.608798333e0,3.797469637e-4,-1.306839908e-2,-3.349109709e-2,3.595248040e-2
8.618730333e0,1.070816363e-2,-2.442729156e-3,-1.373101652e-2,1.758330198e-2
8.628662333e0,8.270827155e-3,-1.052102303e-2,-2.840051115e-2,3.139566118e-2
8.638594333e0,-1.026406760e-2,-2.219501649e-2,-3.109490812e-2,3.955835122e-2
8.648526333e0,-1.073926350e-2,-1.048866235e-2,-2.705389738e-2,3.093957307e-2
8.658458333e0,1.876590773e-5,-1.391778024e-2,-2.630369961e-2,2.975885704e-2
8.668390333e0,-4.281436368e-3,4.658540664e-3,-1.911747158e-2,2.013728924e-2
8.678322333e0,-4.849516209e-3,-9.365713717e-3,-1.716976404e-2,2.015031509e-2
8.688254333e0,2.880210523e-6,-3.079107217e-4,-2.689836144e-2,2.690012390e-2
8.698186333e0,-1.000262168e-4,-1.794430998e-2,-3.064057946e-2,3.550849723e-2
8.708118333e0,9.628285677e-4,-5.816645678e-3,-2.869462609e-2,2.929406036e-2
8.718051333e0,-4.382300838e-3,-1.338351832e-2,-2.645046473e-2,2.996581732e-2
8.727983333e0,-3.507936532e-3,-6.718295468e-3,-2.151132166e-2,2.280741266e-2
8.737915333e0,-1.212856423e-3,-1.803089445e-2,-2.750003994e-2,3.290647918e-2
8.747847333e0,3.261924069e-4,-2.198302751e-2,-2.495474696e-2,3.325807114e-2
8.757779333e0,-4.961332788e-3,-2.086752495e-2,-2.270824671e-2,3.123672340e-2
8.767711333e0,-2.716479348e-3,-9.823075617e-3,-1.956595302e-2,2.206124638e-2
8.777643333e0,-1.128908222e-2,-7.763256859e-3,-1.851637781e-2,2.303405699e-2
8.787575333e0,-9.704817964e-3,-8.789680749e-3,-1.342754602e-2,1.875475864e-2
8.797507333e0,-1.761507976e-3,-1.157204177e-2,-1.492560267e-2,1.896809628e-2
8.807439333e0,-1.564042936e-2,-2.621001625e-2,-1.791937709e-2,3.539339003e-2
8.817371333e0,-9.763911387e-3,-1.740345167e-2,-2.480505824e-2,3.183559344e-2
8.827303333e0,4.058314841e-3,-1.595391777e-2,-2.046408534e-2,2.626359078e-2
8.837236333e0,-7.315705034e-3,-1.743632399e-2,-2.375548303e-2,3.036227772e-2
8.847168333e0,1.368399211e-3,-1.810945728e-2,-3.662578940e-2,4.088121095e-2
8.857100333e0,4.450934816e-3,-8.354328135e-3,-1.731535971e-2,1.973391247e-2
8.867032333e0,-1.385598933e-2,-1.116385130e-2,-3.048855186e-2,3.530115877e-2
8.876964333e0,-1.100947796e-2,-5.925148074e-4,-4.680520713e-2,4.808624641e-2
8.886896333e0,-4.529566162e-3,-2.066452607e-2,-3.019151330e-2,3.686552702e-2
8.896828333e0,-1.346437891e-3,-4.119098475e-3,-3.996571898e-3,5.895121219e-3
8.906760333e0,-1.215220662e-2,-9.173833681e-3,-2.061201990e-2,2.562597734e-2
8.916692333e0,-5.847480604e-3,-1.283620066e-2,-3.243684411e-2,3.537103239e-2
8.926624333e0,-9.869732286e-3,-7.800587676e-3,-2.225859582e-2,2.556767239e-2
8.936556333e0,-3.244567432e-3,9.591507604e-3,-2.570202112e-2,2.762459277e-2
8.946488333e0,-3.388639628e-3,7.724628691e-4,-1.537349939e-2,1.576147395e-2
8.956421333e0,-3.095353798e-3,-3.173960019e-3,-2.420571864e-2,2.460837362e-2
8.966353333e0,1.659399146e-2,8.195439186e-3,-2.211183071e-2,2.883502789e-2
8.976285333e0,4.599721329e-3,-3.221331602e-3,-2.285910487e-2,2.353875717e-2
8.986217333e0,-1.377261397e-3,-1.690821991e-2,-9.984705448e-3,1.968448863e-2
8.996149333e0,-4.482480087e-3,-2.036396091e-2,-2.779707849e-2,3.474854104e-2
9.006081333e0,-5.883813284e-3,-2.121442015e-2,-3.078968346e-2,3.785069998e-2
9.016013333e0,-1.931606677e-2,-1.636400859e-2,-1.552084923e-2,2.969491494e-2
9.025945333e0,-8.701655029e-3,-1.132912651e-2,-2.330407798e-2,2.733400736e-2
9.035877333e0,-1.268127229e-2,-1.222460931e-3,-2.075995445e-2,2.435743801e-2
9.045809333e0,7.682400830e-3,-5.942315133e-3,-1.611843467e-2,1.881845710e-2
9.055741333e0,1.301552060e-2,-1.311148575e-2,-1.387134969e-2,2.310257945e-2
9.065673333e0,-1.775536726e-3,-1.153878573e-2,-1.731360555e-2,2.088197893e-2
9.075606333e0,4.807777139e-3,-1.398220011e-2,-2.330232382e-2,2.759737191e-2
9.085538333e0,7.434869462e-3,-2.221024666e-2,-3.093703330e-2,3.880299434e-2
9.095470333e0,-1.452810393e-2,-3.120293543e-3,-2.779240072e-2,3.151538629e-2
9.105402333e0,2.529521480e-3,-1.371670911e-2,-4.365706623e-2,4.583105955e-2
9.115334333e0,-8.923328456e-3,5.523151997e-4,-3.033418536e-2,3.162425721e-2
9.125266333e0,-1.431412325e-2,-1.130994033e-2,-3.212986529e-2,3.694776202e-2
9.135198333e0,-9.298324557e-3,-1.693890866e-2,-2.314795732e-2,3.015316558e-2
9.145130333e0,-4.721320574e-3,-1.514177606e-2,-3.497395098e-2,3.840236318e-2
9.155062333e0,-2.176167386e-2,-1.582081139e-2,-2.790876031e-3,2.704916840e-2
9.164994333e0,-9.536057271e-3,-1.272232614e-2,-4.814772785e-2,5.070500633e-2
9.174926333e0,-1.391848830e-2,-2.721736360e-2,-2.449690998e-2,3.917407046e-2
9.184858333e0,-1.526444882e-2,-1.169013726e-2,1.099276543e-3,1.925801433e-2
9.194790333e0,3.657472220e-3,-1.208223875e-2,-1.042733967e-2,1.637336278e-2
9.204723333e0,-1.029633463e-2,-1.442124378e-2,-1.566527545e-2,2.365137700e-2
9.214655333e0,6.088363049e-3,-1.447613452e-2,2.954188764e-2,3.345668484e-2
9.224587333e0,5.244609830e-4,-2.004085656e-2,5.034920454e-2,5.419366558e-2
9.234519333e0,3.845298034e-3,-1.313141196e-2,4.091823041e-2,4.314535754e-2
9.244451333e0,-2.985678533e-2,-1.018416859e-2,7.234993815e-2,7.892818553e-2
9.254383333e0,-2.105597660e-2,-1.550469629e-2,8.866659343e-2,9.244195232e-2
9.264315333e0,-5.459154679e-3,3.612574283e-4,9.899511516e-2,9.914618350e-2
9.274247333e0,-3.856085690e-3,-1.681915037e-2,1.138142985e-1,1.151149328e-1
9.284179333e0,-2.273444954e-2,-1.298410781e-3,1.195030546e-1,1.216532824e-1
9.294111333e0,-1.455166410e-3,-1.326037961e-2,9.660068035e-2,9.751741701e-2
9.304043333e0,-5.268772992e-3,-8.122796668e-3,1.238451970e-1,1.242230760e-1
9.313975333e0,1.389396197e-2,-5.297586517e-3,1.031881535e-1,1.042540245e-1
9.323908333e0,6.683493115e-3,-2.329828558e-2,1.093253911e-1,1.119799996e-1
9.333840333e0,-2.934448016e-3,-1.304041467e-2,9.510379314e-2,9.603850723e-2
9.343772333e0,-4.658563505e-3,-8.792138407e-3,7.130211711e-2,7.199302616e-2
9.353704333e0,-1.250651134e-2,-9.108883906e-3,6.067421794e-2,6.261585514e-2
9.363636333e0,-2.165260958e-2,-1.445587026e-2,6.037367105e-2,6.574791132e-2
9.373568333e0,2.005416811e-3,-2.247508898e-2,3.627320230e-2,4.271880764e-2
9.383500333e0,-4.978545529e-3,-7.420847565e-4,2.444779336e-2,2.496059306e-2
9.393432333e0,-8.006457633e-3,-7.696397603e-4,3.986631632e-2,4.066963100e-2
9.403364333e0,2.202911088e-3,3.113496155e-3,3.417814493e-2,3.439029320e-2
9.413296333e0,-4.660212602e-3,-1.329358997e-2,3.806946695e-2,4.059213507e-2
9.423228333e0,2.287691147e-3,-1.354250777e-2,3.612292886e-2,3.864581525e-2
9.433160333e0,-6.815144545e-3,-1.034301186e-2,5.273779213e-2,5.417286044e-2
9.443093333e0,2.235068490e-3,-1.040544916e-2,6.246697426e-2,6.336711905e-2
9.453025333e0,-8.555595693e-3,-1.087979539e-2,6.156942666e-2,6.310596219e-2
9.462957333e0,-4.042011159e-3,-1.881573698e-2,8.537168741e-2,8.751396931e-2
9.472889333e0,-6.922630530e-3,-2.413312180e-2,1.121671379e-1,1.149425822e-1
9.482821333e0,-1.333242827e-3,-2.501694672e-3,1.337228984e-1,1.337529422e-1
9.492753333e0,-1.249628785e-2,-5.742212450e-3,1.265366703e-1,1.272818100e-1
9.502685333e0,-1.294938311e-2,-6.774401329e-3,1.483912235e-1,1.491091354e-1
9.512617333e0,-1.721550480e-3,-1.531522823e-3,1.762356645e-1,1.762507269e-1
9.522549333e0,-1.504367760e-2,-6.296610720e-3,1.534847331e-1,1.543487053e-1
9.532481333e0,-4.745346692e-3,3.247918161e-3,1.368710393e-1,1.369917833e-1
9.542413333e0,-1.636014394e-3,-2.040751353e-3,1.835739201e-1,1.835925526e-1
9.552345333e0,5.622577504e-3,-2.500205459e-3,1.955478483e-1,1.956446406e-1
9.562278333e0,2.638473837e-3,8.622221975e-3,1.823740715e-1,1.825968406e-1
9.572210333e0,1.145917224e-2,-9.153752150e-3,2.111137211e-1,2.116225580e-1
9.582142333e0,1.628381037e-4,1.101604465e-2,2.114142680e-1,2.117011395e-1
9.592074333e0,8.234565281e-3,-7.242279081e-3,2.209955156e-1,2.212674323e-1
9.602007708e0,-1.516018566e-3,-1.406761514e-2,2.350674248e-1,2.354928668e-1
9.611939708e0,-1.279770040e-2,-1.234065827e-2,2.507841557e-1,2.514135353e-1
9.621871708e0,3.792113496e-3,-1.039665093e-2,2.522810429e-1,2.525236526e-1
9.631803708e0,-2.908692858e-4,-3.011078518e-2,2.723387468e-1,2.739984252e-1
9.641735708e0,-1.600002398e-2,-1.661297207e-2,2.813189006e-1,2.822628481e-1
9.651667708e0,-3.829403201e-3,-8.044434842e-3,2.784759843e-1,2.786184687e-1
9.661599708e0,4.390100932e-3,-1.302396024e-2,3.009298772e-1,3.012435684e-1
9.671531708e0,-1.104547031e-2,-7.939605229e-3,2.967403471e-1,2.970519708e-1
9.681463708e0,-8.279086347e-3,6.198377497e-3,3.073688310e-1,3.075427799e-1
9.691396708e0,-9.172860668e-3,-9.478245210e-4,3.194930327e-1,3.196260904e-1
9.701328708e0,-1.072972523e-2,-7.751946151e-3,3.332638103e-1,3.335265910e-1
9.711260708e0,-1.070928282e-2,-5.135107012e-3,3.402991802e-1,3.405063730e-1
9.721192708e0,1.838254966e-3,-2.540012207e-3,3.385040849e-1,3.385186056e-1
9.731124708e0,-9.608003148e-4,-9.790194165e-3,3.450909734e-1,3.452311558e-1
9.741056708e0,4.059541386e-3,-1.780508230e-2,3.769758403e-1,3.774179183e-1
9.750988708e0,-4.822685255e-3,-1.040975234e-2,3.835633135e-1,3.837348521e-1
9.760920708e0,-7.504956108e-3,4.134639278e-3,3.914979851e-1,3.915917414e-1
9.770852708e0,-9.822698745e-3,4.563806634e-3,4.030240166e-1,4.031695322e-1
9.780784708e0,-2.815436164e-2,-8.793353532e-3,4.151493877e-1,4.161958737e-1
9.790716708e0,-6.161496642e-3,-1.116289199e-2,4.275729668e-1,4.277630374e-1
9.800648708e0,-6.463551011e-3,-1.361405393e-3,4.347591949e-1,4.348093702e-1
9.810581708e0,2.615272268e-3,-1.357366246e-2,4.398497808e-1,4.400669422e-1
9.820513708e0,4.814341553e-3,-9.728789264e-3,4.678421563e-1,4.679680656e-1
9.830445708e0,-1.569968723e-2,-7.927362621e-3,4.515260857e-1,4.518684868e-1
9.840377708e0,-1.210220379e-2,-1.398310460e-2,4.585608709e-1,4.589336149e-1
9.850309708e0,-4.808252226e-3,-6.967131039e-3,4.630527020e-1,4.631300735e-1
9.860241708e0,-1.101459199e-2,3.647977347e-3,4.483832073e-1,4.485333093e-1
9.870173708e0,-1.425933301e-2,3.296404369e-3,4.617037493e-1,4.619356524e-1
9.880105708e0,4.734807999e-3,-1.436222345e-2,4.573627764e-1,4.576127196e-1
9.890037708e0,-1.344980427e-2,-9.799942570e-3,5.012215716e-1,5.014977566e-1
9.899969708e0,-2.679240122e-2,-6.694906605e-3,5.789100176e-1,5.795683420e-1
9.909901708e0,-1.014281325e-2,-9.335490922e-3,4.682894683e-1,4.684923203e-1
9.919833708e0,2.995272763e-3,-1.876216186e-3,5.890870965e-1,5.890976991e-1
9.929765708e0,-1.293574494e-2,9.139207201e-3,5.522654253e-1,5.524924964e-1
9.939698708e0,-1.321186371e-2,-1.462041456e-3,5.501691985e-1,5.503297538e-1
9.949630708e0,-1.392547527e-2,-4.030531431e-3,5.955231267e-1,5.956995539e-1
9.959562708e0,-1.968040084e-2,4.235458067e-3,5.712735540e-1,5.716281403e-1
9.969494708e0,-1.770154546e-2,4.421061482e-3,6.148323870e-1,6.151030439e-1
9.979426708e0,-5.954770159e-3,-9.590584841e-3,6.010604399e-1,6.011664421e-1
9.989358708e0,-4.643570879e-3,7.126540756e-3,6.347409868e-1,6.347979763e-1
9.999290708e0,1.189373913e-2,3.263002150e-3,6.233658135e-1,6.234878071e-1
1.000922271e1,6.255643666e-3,1.703546081e-2,6.613885027e-1,6.616374321e-1
1.001915471e1,-1.861075324e-2,2.754294388e-3,6.574960113e-1,6.577651185e-1
1.002908671e1,-1.091459775e-2,-7.026681276e-3,6.783009893e-1,6.784251873e-1
1.003901871e1,-2.602033349e-2,6.087828577e-3,6.916244549e-1,6.921405247e-1
1.004895071e1,-2.655192077e-2,-1.207766147e-2,7.122803289e-1,7.128773676e-1
1.005888371e1,-2.733458200e-2,-2.167485184e-2,6.938686162e-1,6.947450145e-1
1.006881571e1,-1.355485087e-3,-2.573091002e-2,7.116815740e-1,7.121478637e-1
1.007874771e1,1.126865807e-3,-3.514309997e-2,7.194653875e-1,7.203240598e-1
1.008867971e1,-2.399969108e-3,-2.303072979e-2,7.134801775e-1,7.138558244e-1
1.009861171e1,9.697173187e-3,-1.015759117e-2,7.305464458e-1,7.306814089e-1
1.010854371e1,1.946650010e-3,-1.229017122e-2,7.413257879e-1,7.414302135e-1
1.011847571e1,6.218755958e-3,-1.379605765e-2,7.359375787e-1,7.360931489e-1
1.012840771e1,1.328137705e-2,-9.103886364e-3,7.414754766e-1,7.416502937e-1
1.013833971e1,6.610724973e-3,-2.187480834e-2,7.464140350e-1,7.467637649e-1
1.014827171e1,1.383570909e-2,-2.384008493e-2,7.711126739e-1,7.716051661e-1
1.015820371e1,1.660838337e-2,-2.036664697e-2,7.794946575e-1,7.799375358e-1
1.016813571e1,-8.195329551e-4,-1.327736394e-2,7.759038824e-1,7.760179088e-1
1.017806771e1,5.786068852e-3,-1.277369027e-2,7.550977349e-1,7.552279358e-1
1.018800071e1,-1.557282549e-3,7.524270192e-4,7.818914312e-1,7.818933441e-1
1.019793271e1,-1.582741692e-2,1.095714309e-2,7.747075421e-1,7.749466703e-1
1.020786471e1,-1.715439226e-2,3.025681939e-2,7.733603436e-1,7.741420860e-1
1.021779671e1,-1.419703047e-2,3.454832850e-2,7.989576995e-1,7.998303247e-1
1.022772871e1,1.498951091e-2,2.339288257e-3,8.164712799e-1,8.166122143e-1
1.023766071e1,-1.855469763e-2,2.309491212e-2,8.320412457e-1,8.325684875e-1
1.024759271e1,-1.689797358e-3,-1.263164861e-2,8.223126483e-1,8.224113968e-1
1.025752471e1,-1.519133579e-2,-1.570680896e-3,8.562919879e-1,8.564281711e-1
1.026745671e1,-1.790854375e-2,-2.627209724e-2,8.574906671e-1,8.580799399e-1
1.027738871e1,-2.516504344e-2,-2.169408370e-4,8.868314105e-1,8.871884113e-1
1.028732071e1,8.214127435e-3,-1.921084430e-4,8.832382965e-1,8.832765123e-1
1.029725271e1,2.650698172e-3,2.247751923e-3,9.040461981e-1,9.040528784e-1
1.030718571e1,-1.628273458e-2,-1.458012359e-2,9.182672113e-1,9.185272880e-1
1.031711771e1,8.102628342e-3,-1.006235464e-2,9.136268610e-1,9.137181976e-1
1.032704971e1,-7.983109883e-3,-1.039017331e-2,9.342844892e-1,9.343763655e-1
1.033698171e1,-2.911017583e-2,-5.337776989e-4,9.256042975e-1,9.260620945e-1
1.034691371e1,-1.306702407e-2,-4.811600670e-3,9.203657770e-1,9.204711088e-1
1.035684571e1,-1.071353804e-3,3.249544417e-3,9.384769428e-1,9.384831802e-1
1.036677771e1,-2.444779108e-2,5.741253141e-3,9.284483832e-1,9.287879504e-1
1.037670971e1,-9.162854163e-3,-1.172446224e-2,9.333881110e-1,9.335067148e-1
1.038664171e1,1.380498608e-2,-4.658604618e-3,9.244067878e-1,9.245216003e-1
1.039657371e1,6.113065251e-3,-1.719222100e-2,8.878839093e-1,8.880713814e-1
1.040650571e1,5.006449996e-3,-3.101026967e-2,9.142320478e-1,9.147715226e-1
1.041643771e1,-1.226085748e-3,-3.106485891e-2,8.887855500e-1,8.893291194e-1
1.042637071e1,2.081961204e-2,-4.525971495e-2,9.058494794e-1,9.072183736e-1
1.043630271e1,-3.298955674e-3,-1.453627861e-2,9.021072614e-1,9.022304016e-1
1.044623471e1,1.202743937e-2,-2.879172642e-2,8.857917756e-1,8.863411829e-1
1.045616671e1,-1.024431725e-2,2.748702988e-3,9.098904902e-1,9.099523095e-1
1.046609871e1,-3.040527243e-2,-1.553166658e-3,8.699230170e-1,8.704555982e-1
1.047603071e1,-2.008170941e-2,1.817479078e-3,9.036035639e-1,9.038285119e-1
1.048596271e1,-2.883476969e-2,4.676712714e-3,8.813016987e-1,8.817856881e-1
1.049589471e1,-1.819288517e-2,1.331463994e-2,8.967219758e-1,8.970053303e-1
1.050582671e1,3.244428104e-3,2.595743481e-2,8.742680830e-1,8.746593598e-1
1.051575871e1,2.350258639e-3,7.043921426e-3,8.916308051e-1,8.916617258e-1
1.052569071e1,9.320840905e-3,8.997074179e-3,8.983667976e-1,8.984601986e-1
1.053562271e1,-7.543152587e-3,-3.964320850e-3,8.980662507e-1,8.981066783e-1
1.054555471e1,1.050162672e-2,-1.032483067e-2,8.816034150e-1,8.817264132e-1
1.055548771e1,-1.348183605e-2,-3.140706721e-2,9.043561006e-1,9.050017240e-1
1.056541971e1,-1.189293742e-2,-1.719267782e-2,8.789090180e-1,8.791576037e-1
1.057535171e1,-3.269601738e-2,-1.041480470e-2,8.874406904e-1,8.881038659e-1
1.058528371e1,-2.527717522e-2,1.399362045e-2,8.804035664e-1,8.808775151e-1
1.059521571e1,-2.704289274e-2,1.394190000e-2,8.738184321e-1,8.743479553e-1
1.060514671e1,-4.937340932e-3,2.392318849e-2,8.872927558e-1,8.876289376e-1
1.061507871e1,-2.417740989e-2,1.769418620e-2,8.787599140e-1,8.792705033e-1
1.062501071e1,-3.925348244e-2,1.539888910e-2,8.615445417e-1,8.625757700e-1
1.063494271e1,-2.122055745e-2,4.964276953e-3,8.609457868e-1,8.612215766e-1
1.064487471e1,2.318553482e-3,-3.627576046e-3,8.693283552e-1,8.693390157e-1
1.065480671e1,-4.762557149e-4,-6.181356618e-3,8.732202619e-1,8.732422698e-1
1.066473871e1,2.196415426e-2,-1.004078390e-2,8.575023615e-1,8.578423756e-1
1.067467171e1,8.804508923e-3,1.029178477e-2,8.600453156e-1,8.601519547e-1
1.068460371e1,-4.411678528e-3,1.144227927e-2,8.576508808e-1,8.577385511e-1
1.069453571e1,1.499057757e-2,-4.876459083e-3,8.606446552e-1,8.607890101e-1
1.070446771e1,-2.483586119e-2,-8.648580126e-4,8.627408820e-1,8.630987183e-1
1.071439971e1,-2.456637535e-2,9.942459315e-4,8.569036067e-1,8.572562548e-1
1.072433171e1,-3.579798584e-2,-1.576326200e-2,8.539069086e-1,8.548023075e-1
1.073426371e1,-3.559584576e-2,-2.277664086e-2,8.398355842e-1,8.408981199e-1
1.074419571e1,-3.173643447e-2,-2.910610562e-2,8.542062861e-1,8.552910299e-1
1.075412771e1,-1.319722055e-2,-2.999368555e-2,8.642348456e-1,8.648558586e-1
1.076405971e1,-1.060379768e-2,-4.229886767e-2,8.016643757e-1,8.028495537e-1
1.077399171e1,1.769689510e-2,-1.942824195e-2,8.712684613e-1,8.716647110e-1
1.078392371e1,2.448875357e-2,-1.010590727e-2,8.309998566e-1,8.314220289e-1
1.079385671e1,3.830999993e-2,-1.754078815e-2,8.431240582e-1,8.441762333e-1
1.080378871e1,3.065794067e-2,-4.037867859e-3,8.390824628e-1,8.396520667e-1
1.081372071e1,3.013351395e-2,-3.849898148e-3,8.339924616e-1,8.345455508e-1
1.082365271e1,7.481466746e-5,1.604020989e-2,8.827915692e-1,8.829372847e-1
1.083358471e1,1.219340893e-2,-2.212785574e-2,8.306998944e-1,8.310840125e-1
1.084351671e1,1.722653685e-3,-2.801967468e-3,8.455190778e-1,8.455254753e-1
1.085344871e1,-6.952282766e-2,9.959991826e-3,8.510575604e-1,8.539505818e-1
1.086338071e1,-6.031773878e-2,-1.431690753e-3,8.327961212e-1,8.349788374e-1
1.087331271e1,-9.488447688e-2,7.669975497e-3,8.612352240e-1,8.664802384e-1
1.088324471e1,-6.034275390e-2,6.178707099e-3,8.241106671e-1,8.263400124e-1
1.089317671e1,-1.652508568e-2,-6.860583806e-3,8.585402423e-1,8.587266700e-1
1.090310871e1,7.937723156e-3,-1.555128216e-2,8.375844061e-1,8.377663679e-1
1.091304071e1,3.204660870e-2,7.767258547e-3,8.670713300e-1,8.676981080e-1
1.092297371e1,1.321561643e-2,1.066205970e-2,8.609346771e-1,8.611021138e-1
1.093290571e1,2.517443782e-2,-9.930472523e-3,8.233639777e-1,8.238085981e-1
1.094283771e1,-1.123921415e-2,1.037402038e-2,8.336913300e-1,8.338316220e-1
1.095276971e1,-9.371003620e-3,-1.867261724e-2,8.467148334e-1,8.469725447e-1
1.096270171e1,-2.191323095e-2,-5.708024511e-3,8.536010993e-1,8.539014041e-1
1.097263371e1,-9.082888921e-3,1.311026148e-2,8.393812555e-1,8.395327688e-1
1.098256571e1,-4.383809237e-2,2.594763159e-2,8.022590375e-1,8.038747547e-1
1.099249771e1,-2.357245148e-2,3.103947834e-2,8.606376386e-1,8.615197355e-1
1.100242971e1,2.229956745e-3,4.888034742e-2,8.088447565e-1,8.103234547e-1
1.101236171e1,-7.567370567e-3,1.609128166e-2,8.067485297e-1,8.069444743e-1
1.102229371e1,4.306899165e-3,-1.749996727e-2,8.763526154e-1,8.765379083e-1
1.103222571e1,1.899721080e-2,-1.207637326e-2,7.730656439e-1,7.733933169e-1
1.104215871e1,1.965261058e-2,-3.772573289e-2,8.687149823e-1,8.697558143e-1
1.105209071e1,1.935165485e-2,-5.426291957e-2,8.133307403e-1,8.153685327e-1
1.106202271e1,-2.655436472e-2,-2.391555970e-2,8.636267352e-1,8.643657941e-1
1.107195471e1,-1.458691413e-2,-2.315610688e-2,8.768016815e-1,8.772286886e-1
1.108188671e1,-5.237495413e-2,-4.346354166e-3,8.389316046e-1,8.405761499e-1
1.109181871e1,-2.386121257e-2,1.628062181e-2,8.293538654e-1,8.298567648e-1
1.110175071e1,-1.000477327e-2,-1.718320350e-2,8.253116852e-1,8.255511709e-1
1.111168271e1,3.507931964e-3,4.988615988e-3,9.158721918e-1,9.158924956e-1
1.112161471e1,6.007208264e-2,-3.580177054e-3,8.238130438e-1,8.260081137e-1
1.113154671e1,2.244898208e-2,-1.377438641e-2,8.402793878e-1,8.406920602e-1
1.114147871e1,-4.843851719e-3,-2.904395155e-2,8.037559247e-1,8.042950954e-1
1.115141071e1,-1.737148385e-2,4.688297510e-3,8.706679523e-1,8.708538521e-1
1.116134371e1,-5.797020961e-2,-1.561931086e-2,8.341450739e-1,8.363028832e-1
1.117127571e1,-5.390004045e-2,-2.413770821e-2,8.196252680e-1,8.217502195e-1
1.118120771e1,-4.390878429e-2,-1.623241883e-3,8.327978754e-1,8.339561844e-1
1.119113971e1,-8.563247323e-3,1.454803700e-2,8.630349970e-1,8.632000814e-1
1.120107171e1,-1.005820678e-2,4.851949199e-2,8.341456586e-1,8.356161131e-1
1.121100371e1,2.038120106e-3,2.560154951e-2,8.580964386e-1,8.584806878e-1
1.122093571e1,1.838726398e-2,4.070146317e-3,8.845930964e-1,8.847935373e-1
1.123086771e1,-2.770916469e-2,-1.181117462e-2,8.330990070e-1,8.336433633e-1
1.124079971e1,-3.669281768e-2,-1.040004048e-2,8.563001740e-1,8.571490604e-1
1.125073171e1,-2.809906891e-4,1.479123549e-2,8.866863996e-1,8.868098053e-1
1.126066371e1,1.378843800e-2,1.089217504e-3,8.482169831e-1,8.483297459e-1
1.127059571e1,5.039112177e-2,2.771963943e-3,8.577988154e-1,8.592821170e-1
1.128052871e1,5.378110900e-2,2.331078401e-2,8.235195136e-1,8.256029249e-1
1.129046071e1,4.605482207e-2,-5.555805042e-3,9.497071052e-1,9.508393656e-1
1.130039271e1,-8.599550310e-3,-1.669707147e-2,8.271132123e-1,8.273264232e-1
1.131032471e1,-1.598722863e-2,-1.261075395e-2,8.461230952e-1,8.463680729e-1
1.132025671e1,-7.278471975e-2,-4.209408721e-2,8.242667878e-1,8.285440634e-1
1.133018871e1,-1.047243267e-1,-3.117305067e-2,7.928309870e-1,8.003248825e-1
1.134012071e1,-7.394152741e-2,-4.162702259e-2,7.982197809e-1,8.027172461e-1
1.135005271e1,-4.853905732e-2,-4.308072262e-2,7.542107123e-1,7.569978780e-1
1.135998471e1,4.742498458e-3,-1.285700396e-2,7.848969001e-1,7.850165206e-1
1.136991671e1,-8.117812830e-3,1.592914020e-2,7.863932025e-1,7.865964057e-1
1.137984871e1,-1.776680131e-2,1.211330208e-2,6.973266596e-1,6.976581265e-1
1.138978071e1,-2.120477225e-2,1.971203291e-2,7.857921088e-1,7.863252793e-1
1.139971271e1,-2.254563016e-2,2.107659032e-2,6.729268134e-1,6.736341917e-1
1.140964571e1,4.597547353e-2,-3.752797823e-3,7.724698126e-1,7.738458755e-1
1.141957771e1,2.701989217e-2,2.302490998e-2,7.202272797e-1,7.211016263e-1
1.142950971e1,5.365818042e-2,8.192533851e-3,6.846007794e-1,6.867492593e-1
1.143944171e1,4.261646741e-2,-1.967525940e-2,7.630382538e-1,7.644806445e-1
1.144937371e1,2.713175671e-2,-1.098223130e-2,6.913385260e-1,6.919578738e-1
1.145930571e1,-5.569121162e-3,-9.674812155e-3,7.360960382e-1,7.361806807e-1
1.146923771e1,-5.299238356e-2,2.355051985e-2,6.498794281e-1,6.524615627e-1
1.147916971e1,-6.339260220e-2,3.282217562e-2,6.970325446e-1,7.006784466e-1
1.148910171e1,-6.947766705e-2,1.541791996e-2,6.887984955e-1,6.924653247e-1
1.149903371e1,-4.932500990e-3,2.167756531e-2,7.606490815e-1,7.609738968e-1
1.150896571e1,-1.926204855e-2,2.495268216e-2,6.578123456e-1,6.585671909e-1
1.151889771e1,-5.853857724e-3,-8.279164005e-3,6.259280634e-1,6.260101858e-1
1.152883071e1,-2.457003215e-2,2.576011869e-2,7.125978327e-1,7.134864689e-1
1.153876271e1,1.345181197e-2,-4.243705382e-2,6.608037812e-1,6.623016624e-1
1.154869471e1,-1.925196667e-2,1.488640806e-2,6.775700873e-1,6.780069812e-1
1.155862671e1,4.540269307e-2,-6.560363087e-2,5.757823420e-1,5.812835334e-1
1.156855871e1,4.642963773e-2,-4.903738171e-2,6.775712568e-1,6.809281783e-1
1.157849071e1,5.857711861e-2,-3.687524624e-2,5.997337067e-1,6.037148181e-1
1.158842271e1,2.464482626e-2,-5.840853151e-2,5.841672492e-1,5.875970550e-1
1.159835471e1,-9.628203451e-3,5.950090103e-4,7.229304475e-1,7.229948051e-1
1.160828658e1,-5.483412401e-2,1.669473259e-2,4.859720331e-1,4.893406914e-1
1.161821858e1,-5.408663058e-2,-1.701023555e-2,6.352111030e-1,6.377365107e-1
1.162815058e1,-4.804911090e-2,9.132967126e-3,5.003409809e-1,5.027257953e-1
1.163808258e1,-1.004618801e-2,-2.023239856e-2,5.151595795e-1,5.156546017e-1
1.164801558e1,-2.611841140e-2,-7.305712234e-3,4.988417548e-1,4.995784635e-1
1.165794758e1,2.609260599e-3,1.003696494e-2,5.199484491e-1,5.200518615e-1
1.166787958e1,-6.328042702e-2,6.221086621e-2,4.867175531e-1,4.947409230e-1
1.167781158e1,-1.848165083e-2,3.661511824e-2,4.823759955e-1,4.841165555e-1
1.168774358e1,5.947838011e-3,4.500772736e-2,4.650103498e-1,4.672212513e-1
1.169767558e1,4.638830979e-2,3.561531745e-2,4.540824884e-1,4.578331928e-1
1.170760758e1,8.775777167e-2,-3.791021255e-2,3.898677814e-1,4.014168627e-1
1.171753958e1,3.184722550e-2,-4.027389466e-2,4.931535834e-1,4.958192102e-1
1.172747158e1,2.657623468e-2,-4.137982241e-2,4.650126886e-1,4.676060164e-1
1.173740358e1,-2.064735901e-2,-4.001568527e-2,4.504940522e-1,4.527388425e-1
1.174733558e1,-5.630945418e-2,-4.980253556e-2,4.527393830e-1,4.589379000e-1
1.175726758e1,-2.737614749e-2,-4.258010960e-2,4.600758845e-1,4.628523940e-1
1.176720058e1,-1.821081054e-2,-1.349717357e-2,4.539380622e-1,4.545036541e-1
1.177713258e1,4.110898669e-3,2.445319290e-2,4.204072040e-1,4.211378341e-1
1.178706458e1,-4.470272654e-2,-2.178179193e-2,4.138203156e-1,4.167973534e-1
1.179699658e1,-5.198036300e-2,4.810555480e-2,5.160582966e-1,5.208956402e-1
1.180692858e1,-3.247438049e-2,2.992855305e-2,3.880750251e-1,3.905797342e-1
1.181686058e1,9.028566917e-3,2.485041984e-2,4.482498908e-1,4.490289779e-1
1.182679258e1,4.341533868e-2,3.302858233e-2,3.157747883e-1,3.204520179e-1
1.183672458e1,2.422082090e-2,-4.042470714e-2,4.070843232e-1,4.098029420e-1
1.184665658e1,5.335109197e-3,-4.265415911e-3,3.252051777e-1,3.252769047e-1
1.185658858e1,-1.691659331e-2,4.823182725e-2,2.774562299e-1,2.821248656e-1
1.186652058e1,-5.243163558e-2,7.307017808e-2,3.449681818e-1,3.564987711e-1
1.187645258e1,-1.000923178e-2,6.342125813e-2,3.100912946e-1,3.166686781e-1
1.188638558e1,-3.784211989e-2,3.322932456e-2,2.089011347e-1,2.148857793e-1
1.189631758e1,-2.349589863e-2,5.295514410e-2,3.165261555e-1,3.217842626e-1
1.190624958e1,5.960966838e-3,-2.331391775e-2,2.283589143e-1,2.296233124e-1
1.191618158e1,-1.770869917e-2,-5.256482419e-3,3.154777497e-1,3.160180995e-1
1.192611358e1,-3.827792932e-2,6.213817801e-3,2.403351814e-1,2.434436502e-1
1.193604558e1,3.556888690e-3,-6.814007993e-2,1.360015583e-1,1.521582920e-1
1.194597758e1,1.423015403e-2,-1.184526023e-1,3.359851044e-1,3.565382261e-1
1.195590958e1,7.210337752e-2,-4.192909523e-2,1.328604341e-1,1.568720530e-1
1.196584158e1,4.838716676e-2,-1.380000087e-1,1.767186445e-1,2.293791613e-1
1.197577358e1,6.886363175e-2,-8.554635471e-2,2.859931648e-1,3.063535031e-1
1.198570558e1,-1.913382551e-2,-1.587502604e-2,2.026177168e-1,2.041373530e-1
1.199563758e1,-4.636286070e-2,-8.600815684e-3,2.101015681e-1,2.153280237e-1
1.200557058e1,-5.546640902e-2,1.376948937e-2,1.051709443e-1,1.196956511e-1
1.201550258e1,-2.497724504e-2,-2.333921609e-2,2.105518037e-1,2.133087992e-1
1.202543458e1,-5.904918078e-2,-3.946404615e-3,2.020166230e-1,2.105067596e-1
1.203536658e1,-7.832972115e-2,6.425691660e-2,1.615994990e-1,1.907325211e-1
1.204529858e1,-4.469529418e-2,3.987677735e-2,2.054577094e-1,2.140109742e-1
1.205523058e1,1.645159805e-3,5.974089269e-2,1.693833125e-1,1.796173359e-1
1.206516258e1,2.550180880e-2,7.287271578e-2,1.642933112e-1,1.815297967e-1
1.207509458e1,6.512656203e-2,6.613858715e-3,1.217822993e-1,1.382611320e-1
1.208502658e1,5.433223648e-2,-3.041756300e-2,1.566586018e-1,1.685797662e-1
1.209495858e1,4.030460624e-2,-7.826374811e-2,1.665392268e-1,1.883745992e-1
1.210489058e1,-4.802475359e-2,-6.672117082e-2,1.593541682e-1,1.793093486e-1
1.211482258e1,-2.169823157e-2,-3.804325498e-2,6.415038764e-2,7.767480117e-2
1.212475558e1,-6.210353326e-2,-5.998336027e-2,1.008217853e-1,1.327399139e-1
1.213468758e1,-4.317774986e-2,1.966734739e-2,1.039629096e-1,1.142777721e-1
1.214461958e1,-2.789330173e-2,-8.983552493e-3,9.034182072e-2,9.497570778e-2
1.215455158e1,-7.592487555e-2,1.293629768e-2,1.556072724e-1,1.736247613e-1
1.216448358e1,-4.987909754e-2,-2.571112085e-3,5.919721127e-3,5.029491114e-2
1.217441558e1,-3.761945061e-2,-1.093749097e-3,1.226769233e-1,1.283200953e-1
1.218434758e1,3.846382967e-2,4.627833646e-3,-8.134997249e-2,9.010383488e-2
1.219427958e1,8.787730155e-3,4.366527060e-2,1.074069196e-1,1.162760785e-1
1.220421158e1,2.631569097e-2,1.513509745e-2,-2.014950514e-3,3.042444398e-2
1.221414358e1,-1.930617219e-2,5.341108988e-2,1.172863752e-1,1.303133401e-1
1.222407558e1,-6.731147008e-2,6.156063756e-2,-6.982511044e-2,1.148742449e-1
1.223400758e1,-3.836917330e-2,4.254356450e-2,3.810221136e-2,6.880353807e-2
1.224394058e1,-2.661719717e-2,1.144574191e-2,-4.257883966e-2,5.150182307e-2
1.225387258e1,-4.905793376e-2,-1.427816972e-4,-1.548518121e-2,5.144406757e-2
1.226380458e1,1.198467247e-2,-4.149679413e-2,-1.193685687e-1,1.269427882e-1
1.227373658e1,-1.725450299e-2,-6.779853858e-2,7.627341986e-2,1.034987646e-1
1.228366858e1,-3.349815030e-5,-4.216065411e-2,4.723965526e-3,4.242449442e-2
1.229360058e1,4.506056244e-3,-5.719662298e-2,-1.467598504e-1,1.575760512e-1
1.230353258e1,1.964145062e-2,-9.460162695e-2,1.131319284e-2,9.727919992e-2
1.231346458e1,7.037775911e-2,-8.815761158e-2,-9.017459035e-2,1.444169318e-1
1.232339658e1,2.209773344e-2,-6.502597164e-2,-1.141253704e-1,1.331964225e-1
1.233332858e1,4.025501455e-2,-5.555665257e-2,-5.903933644e-2,9.051326471e-2
1.234326058e1,-2.457250808e-2,-1.131465465e-2,-6.921816945e-2,7.431678508e-2
1.235319258e1,-5.240540077e-2,6.970228236e-3,-1.494507390e-1,1.585258134e-1
1.236312558e1,-5.104815695e-2,1.964648014e-2,-1.478053325e-1,1.576017603e-1
1.237305758e1,-2.356738541e-2,-1.218496702e-2,-1.560387969e-1,1.582782399e-1
1.238298958e1,-3.827840441e-2,-1.851931969e-2,-5.933871388e-2,7.300194800e-2
1.239292158e1,-2.463505958e-2,2.349959426e-2,-1.503506255e-1,1.541571526e-1
1.240285358e1,-2.405599794e-2,7.134720462e-2,-6.637642264e-2,1.003740212e-1
1.241278558e1,2.045666669e-2,5.828285292e-2,-1.888229656e-1,1.986692691e-1
1.242271758e1,9.991035973e-2,-4.187520035e-3,-6.757451713e-2,1.206893975e-1
1.243264958e1,8.881248146e-2,-2.815810751e-2,-1.262524956e-1,1.569083444e-1
1.244258158e1,6.785581389e-2,-1.031110616e-1,-1.437649065e-1,1.894852260e-1
1.245251358e1,4.816932600e-2,-9.346085345e-2,-5.125610769e-2,1.169718072e-1
1.246244558e1,-6.285959652e-2,-1.006775875e-1,-1.040950567e-1,1.578704732e-1
1.247237858e1,-4.309197395e-2,-2.282600415e-2,-1.033448589e-1,1.142720637e-1
1.248231058e1,-7.162753293e-2,-1.731013376e-3,-1.725010478e-1,1.867889488e-1
1.249224258e1,-3.213898786e-2,4.961428262e-2,-7.385735035e-2,9.460126734e-2
1.250217458e1,-3.410885543e-2,2.354522995e-2,-1.295427239e-1,1.360114303e-1
1.251210658e1,-3.273274063e-2,-9.816470090e-4,-3.943362236e-2,5.125823361e-2
1.252203858e1,-4.173176084e-4,-8.697641920e-4,-1.822372466e-1,1.822398000e-1
1.253197058e1,4.052823940e-3,-1.647727098e-4,-1.241568536e-1,1.242230929e-1
1.254190258e1,3.555687270e-2,1.368648631e-2,-1.301449871e-1,1.356072593e-1
1.255183458e1,1.588179145e-2,1.086503117e-2,-8.673818171e-2,8.884701666e-2
1.256176658e1,1.503166568e-2,2.920094929e-2,-1.264051080e-1,1.306020587e-1
1.257169858e1,-8.757128203e-3,3.170017716e-2,-4.407689631e-2,5.499419347e-2
1.258163058e1,-7.796341136e-2,-3.178619519e-3,-1.322417986e-1,1.535457275e-1
1.259156358e1,-5.521084002e-2,-2.699473087e-2,-7.461164117e-2,9.666358853e-2
1.260149600e1,-3.952716411e-2,-1.998048406e-3,-9.691526055e-2,1.046850354e-1
1.261142800e1,-5.300750866e-2,-4.237280753e-2,-3.030436456e-2,7.432096141e-2
1.262136000e1,6.244699779e-2,-4.668864654e-2,-8.898292780e-3,7.847698302e-2
1.263129200e1,-4.273803467e-2,-2.448508764e-2,-7.596117854e-2,9.053264477e-2
1.264122400e1,1.298095122e-2,-1.908570475e-2,5.037551701e-2,5.541174907e-2
1.265115600e1,1.488393669e-2,-6.016876269e-3,-9.652583599e-3,1.873250495e-2
1.266108800e1,6.290122138e-2,-4.480218859e-3,-6.638694763e-2,9.156343609e-2
1.267102000e1,9.182423607e-2,-2.847597677e-2,2.918930054e-3,9.618259580e-2
1.268095200e1,8.614492686e-2,-2.688396268e-2,1.803866029e-2,9.202765421e-2
1.269088400e1,1.490759051e-2,-1.303505167e-2,-3.180943787e-2,3.746984340e-2
1.270081600e1,-1.060966317e-2,-1.824717748e-2,4.902305603e-2,5.337400548e-2
1.271074900e1,-6.969299534e-2,3.794010644e-2,-4.498263001e-2,9.121404650e-2
1.272068100e1,-4.977840666e-2,-3.309349556e-2,-5.635897279e-2,8.215475051e-2
1.273061300e1,-5.291673521e-2,-2.646860023e-2,-9.976870179e-2,1.159937995e-1
1.274054500e1,-4.086241235e-2,-5.537377177e-3,-7.551854432e-2,8.604330203e-2
1.275047700e1,-5.922660723e-2,1.371135525e-2,-6.354403138e-2,8.794109501e-2
1.276040900e1,2.501392718e-2,2.882562200e-2,-2.073305726e-2,4.343354349e-2
1.277034100e1,3.328945952e-2,3.917838226e-2,-6.025146425e-2,7.920462547e-2
1.278027300e1,8.209810546e-2,-1.603054371e-2,-1.051592499e-1,1.343709235e-1
1.279020500e1,8.580980832e-2,-6.159503563e-2,-5.097017884e-2,1.172826959e-1
1.280013700e1,4.661754806e-2,-1.202364965e-1,-1.207257074e-1,1.766485417e-1
1.281006900e1,1.596784602e-2,-1.074445336e-1,2.342336118e-2,1.111213470e-1
1.282000100e1,-6.643209453e-2,-7.426973437e-2,-8.689839542e-2,1.322140225e-1
1.282993400e1,-5.590877830e-2,-1.426752596e-2,4.317759454e-2,7.206704141e-2
1.283986600e1,-4.746472738e-2,1.189220424e-2,-1.256718671e-1,1.348619407e-1
1.284979800e1,-2.028703805e-2,4.590120932e-2,2.416478813e-2,5.569938882e-2
1.285973000e1,-3.388847935e-2,8.272028575e-3,-2.523307443e-2,4.305303165e-2
1.286966200e1,-3.555060522e-2,6.108175060e-3,7.520805717e-2,8.341107358e-2
1.287959400e1,4.600529890e-3,-4.312303271e-3,1.637805104e-2,1.754996840e-2
1.288952600e1,-4.026852710e-2,1.737325628e-2,5.289976001e-2,6.871512874e-2
1.289945800e1,1.029599202e-2,-3.057351921e-2,-2.538744092e-2,4.105203631e-2
1.290939000e1,5.048890731e-2,4.765961325e-2,8.897240281e-2,1.128567985e-1
1.291932200e1,7.967589637e-3,6.016294288e-2,-6.079350114e-3,6.099197225e-2
1.292925400e1,1.891575177e-2,8.957691355e-2,7.385559618e-2,1.176285603e-1
1.293918700e1,-5.824546728e-2,-1.033629670e-2,-5.637476027e-2,8.171589248e-2
1.294911900e1,-4.818354204e-2,-1.323488940e-2,7.011045456e-2,8.609466801e-2
1.295905100e1,-1.500918588e-2,-2.515377156e-2,-1.090681136e-1,1.129329061e-1
1.296898300e1,-2.971239336e-2,-2.424523302e-2,4.346410811e-2,5.796366394e-2
1.297891500e1,4.229910064e-2,-5.767942026e-2,-3.347764850e-2,7.897393485e-2
1.298884700e1,-5.347642795e-2,-1.257282014e-2,-4.949843466e-2,7.394524451e-2
1.299877900e1,7.901771916e-3,-3.865389615e-2,-8.422797203e-2,9.301028416e-2
1.300871100e1,9.235818735e-3,-3.991960821e-2,5.168821692e-2,6.595867825e-2
1.301864300e1,2.073001031e-2,-7.865720177e-3,-1.159660739e-1,1.180666472e-1
1.302857500e1,4.997671406e-2,-4.445668210e-2,-5.998307705e-2,8.984452162e-2
1.303850700e1,1.768967653e-1,1.955346373e-2,-3.169132411e-2,1.807737358e-1
1.304843900e1,1.055870651e-1,-4.694738584e-3,-2.510502040e-2,1.086320898e-1
1.305837200e1,-2.385094796e-2,-3.652088670e-3,-3.827762783e-2,4.524800838e-2
1.306830400e1,-3.394578663e-2,2.812567374e-2,6.031987667e-3,4.449443593e-2
1.307823600e1,-1.085573045e-1,2.361742479e-2,-6.402233362e-2,1.282237510e-1
1.308816800e1,-9.940215446e-2,1.002710690e-2,1.691014767e-3,9.992092231e-2
1.309810000e1,-1.233262840e-1,3.188157789e-2,2.893494666e-2,1.306255659e-1
1.310803200e1,-9.962094082e-2,4.148542861e-2,-8.528047085e-2,1.375431981e-1
1.311796400e1,-3.940535930e-2,3.442114242e-2,6.710323155e-2,8.509078135e-2
1.312789600e1,-2.412102994e-2,2.233682974e-2,9.180128574e-2,9.751017441e-2
1.313782800e1,7.571062992e-2,-2.393210549e-2,1.471159458e-2,8.075441889e-2
1.314776000e1,8.032526622e-2,-4.689207483e-2,-1.103603482e-2,9.366327530e-2
1.315769200e1,6.600663650e-2,-5.199290254e-2,3.297244906e-2,9.026250813e-2
1.316762500e1,9.384494243e-2,-1.040685615e-2,6.156416416e-2,1.127178876e-1
1.317755700e1,2.665864388e-2,-1.325040280e-2,-3.962307215e-2,4.956051164e-2
1.318748900e1,-4.100481946e-2,2.927604033e-2,4.390498817e-2,6.682910849e-2
1.319742100e1,-1.687680940e-2,7.979868790e-3,-1.086260641e-1,1.102185411e-1
1.320735300e1,-3.407766419e-2,1.836255035e-2,-9.832093120e-3,3.993921014e-2
1.321728500e1,-4.122977737e-2,9.898449881e-3,-9.530669153e-2,1.043131789e-1
1.322721700e1,-1.617060736e-2,-8.393477071e-3,-9.171533167e-2,9.350743855e-2
1.323714900e1,-9.969849866e-3,-3.127474654e-2,-7.509988368e-2,8.196035753e-2
1.324708100e1,-9.390591793e-3,-2.567101261e-3,-8.902327359e-2,8.955398631e-2
1.325701300e1,1.932265860e-2,-2.937158749e-2,-1.406652975e-1,1.449923488e-1
1.326694500e1,6.192487341e-2,1.309395324e-2,-3.588143885e-2,7.275726227e-2
1.327687700e1,-2.087370107e-2,2.076807660e-2,-8.198498011e-2,8.711234910e-2
1.328681000e1,6.147811873e-2,5.913557796e-2,-1.596991539e-2,8.678487115e-2
1.329674200e1,-5.898232609e-2,-2.176223117e-2,-1.011422127e-1,1.190892804e-1
1.330667400e1,-3.652141204e-2,3.026279451e-2,4.061300576e-2,6.244250560e-2
1.331660600e1,-2.532647913e-2,-3.773628529e-2,-8.542606652e-2,9.676296096e-2
1.332653800e1,-8.889679100e-2,4.884955818e-3,1.606054723e-2,9.046791377e-2
1.333647000e1,-9.326327238e-3,-3.895717478e-2,5.018957555e-2,6.421553816e-2
1.334640200e1,-5.271538999e-2,2.405809471e-2,1.052147985e-2,5.889317279e-2
1.335633400e1,-1.354623993e-2,-2.600553730e-2,-2.330817103e-2,3.745743482e-2
1.336626600e1,-1.716782258e-2,-5.840875078e-2,8.147393346e-2,1.017070211e-1
1.337619800e1,1.171369057e-2,-3.555470740e-2,-3.273856044e-2,4.973088683e-2
1.338613000e1,-3.476731586e-3,-4.451779464e-2,5.572805822e-2,7.141105079e-2
1.339606300e1,1.209714275e-1,-1.918004592e-2,-5.194666386e-3,1.225925976e-1
1.340599500e1,-3.673663982e-3,1.230488976e-2,-5.942525268e-3,1.414990196e-2
1.341592700e1,2.117118273e-2,-2.184851415e-2,1.501331091e-2,3.392603798e-2
1.342585900e1,-1.132244789e-3,-2.800268121e-3,5.183732092e-2,5.192524743e-2
1.343579100e1,-8.014692614e-2,-3.198774140e-3,-1.165624899e-1,1.414940846e-1
1.344572300e1,-6.226141722e-2,-3.251490444e-3,-3.168898523e-2,6.993745813e-2
1.345565500e1,-4.656514239e-2,2.259143030e-2,-5.788334191e-2,7.764770749e-2
1.346558700e1,-4.600127894e-2,6.384889059e-2,-4.620879114e-2,9.125815509e-2
1.347551900e1,-2.036660129e-2,5.393098044e-2,-8.976879358e-2,1.066854507e-1
1.348545100e1,-3.445554050e-3,5.173842075e-2,1.830704749e-2,5.498985372e-2
1.349538300e1,3.124345024e-2,-2.947044197e-2,-1.044377035e-1,1.129242846e-1
1.350531500e1,4.564231014e-2,-9.378193868e-3,-2.854435265e-2,5.464385660e-2
1.351524800e1,7.298178005e-2,-4.652775675e-2,-4.800213218e-2,9.897159725e-2
1.352518000e1,9.604841083e-2,-4.845439604e-2,-2.599789023e-2,1.106752728e-1
1.353511200e1,1.547427707e-2,-5.581543755e-2,5.707934976e-2,8.131954555e-2
1.354504400e1,2.579781039e-2,-7.745731657e-2,-1.611726522e-2,8.321615919e-2
1.355497600e1,-2.373471628e-2,-3.857463897e-2,4.987674952e-3,4.556551799e-2
1.356490800e1,-2.441067268e-2,-2.873065042e-2,-3.288357139e-2,5.002659774e-2
1.357484000e1,-7.591681736e-2,9.471027553e-4,3.342794716e-2,8.295593899e-2
1.358477200e1,-5.681273500e-2,4.476966346e-2,-3.273446739e-2,7.939493043e-2
1.359470400e1,-8.188923195e-2,6.893355623e-3,6.246697426e-2,1.032254210e-1
1.360463546e1,-2.410403647e-2,5.833400692e-2,-2.779590905e-2,6.896719145e-2
1.361456746e1,-3.935171109e-2,-2.382707488e-2,-2.824380577e-2,5.398147115e-2
1.362450046e1,1.313172259e-2,8.070631281e-2,4.360678017e-2,9.266877761e-2
1.363443246e1,-5.592077879e-2,3.657590535e-2,-8.946590781e-2,1.116650304e-1
1.364436446e1,6.027267411e-2,8.210365118e-2,1.045324284e-1,1.459480502e-1
1.365429646e1,-5.327910269e-2,5.016436857e-2,-1.899035311e-1,2.035153011e-1
1.366422846e1,-2.905899899e-2,8.716252511e-2,3.747480512e-2,9.922747717e-2
1.367416046e1,4.065870540e-3,-3.652183687e-2,-1.717876875e-1,1.756740888e-1
1.368409246e1,-7.848754115e-2,8.417295339e-3,4.900376022e-2,9.291132058e-2
1.369402446e1,6.449720976e-2,-7.691872406e-2,-1.937901753e-1,2.182453029e-1
1.370395646e1,-3.894276688e-2,2.069071063e-2,6.202901781e-2,7.610679108e-2
1.371388846e1,4.902030601e-2,-5.811019560e-2,-2.220801741e-1,2.347325903e-1
1.372382046e1,1.534228074e-2,-4.483110490e-2,4.676018357e-2,6.657122737e-2
1.373375346e1,5.766346833e-2,-1.456968723e-1,-2.012734419e-1,2.550757781e-1
1.374368546e1,2.109414567e-2,-4.398734255e-2,-2.688374341e-2,5.570085229e-2
1.375361746e1,7.979543539e-2,-1.134635478e-1,-1.530684114e-1,2.065701497e-1
1.376354946e1,6.780737793e-2,-7.381981853e-2,5.290209889e-2,1.133394820e-1
1.377348146e1,-3.937743427e-3,-4.842367988e-2,-1.457336640e-1,1.536185517e-1
1.378341346e1,1.451876437e-2,1.261405215e-2,-5.546902657e-2,5.870878758e-2
1.379334546e1,-5.869850772e-2,-3.142483726e-2,-1.722291523e-1,1.846507951e-1
1.380327746e1,-7.907277435e-2,4.673208953e-2,-9.693572581e-2,1.335399819e-1
1.381320946e1,-5.849427088e-2,3.622381160e-2,-1.315155745e-1,1.484253704e-1
1.382314146e1,-4.245342145e-2,5.974046328e-2,-1.250795442e-1,1.449693358e-1
1.383307346e1,-2.752732085e-2,3.711010331e-2,-1.634016109e-1,1.698087147e-1
1.384300546e1,-1.851392015e-2,3.495709456e-2,-1.854058528e-1,1.895787276e-1
1.385293846e1,3.331691402e-2,-7.582923247e-2,-2.238758540e-1,2.387058593e-1
1.386287046e1,3.558923339e-2,-7.860568232e-2,-2.008249605e-1,2.185774727e-1
1.387280246e1,5.466869806e-2,-4.356941281e-2,-1.912448823e-1,2.036211318e-1
1.388273446e1,7.995118146e-2,-3.665521734e-2,-2.322590071e-1,2.483546713e-1
1.389266646e1,2.363610390e-2,-2.464468008e-2,-1.967821956e-1,1.997229535e-1
1.390259846e1,-8.021740336e-4,7.805091860e-3,-3.246146089e-1,3.247094197e-1
1.391253046e1,-2.119606081e-2,2.061349084e-2,-2.373455000e-1,2.391800062e-1
1.392246246e1,-3.239494059e-2,3.676601294e-2,-3.710181123e-1,3.742400453e-1
1.393239446e1,-4.283074959e-2,4.560266328e-2,-2.053126985e-1,2.146331292e-1
1.394232646e1,-8.025060458e-2,3.659196692e-2,-2.807563984e-1,2.942843639e-1
1.395225946e1,-3.770258614e-2,1.510681154e-2,-2.958743745e-1,2.986492027e-1
1.396219146e1,1.241090252e-2,2.899902849e-2,-3.767086226e-1,3.780269309e-1
1.397212346e1,-5.158953146e-2,-3.658615625e-2,-3.325522041e-1,3.385129171e-1
1.398205546e1,9.747175103e-2,-1.829405570e-2,-2.759710371e-1,2.932497708e-1
1.399198746e1,1.532271541e-2,6.848140201e-3,-3.493167561e-1,3.497197145e-1
1.400191946e1,3.146107173e-2,2.338984933e-2,-2.907867122e-1,2.934174433e-1
1.401185146e1,3.499240626e-2,2.506993711e-5,-3.844906819e-1,3.860797244e-1
1.402178346e1,-6.579793202e-2,2.312028355e-2,-3.558989668e-1,3.626678783e-1
1.403171546e1,-2.791256100e-2,-6.567053581e-3,-4.960058552e-1,4.968340222e-1
1.404164746e1,-1.043473183e-1,-2.936627931e-2,-3.802976435e-1,3.954453678e-1
1.405157946e1,4.667171246e-2,-3.442634096e-2,-4.314900166e-1,4.353700221e-1
1.406151146e1,-4.437597682e-2,-2.980429972e-2,-3.500587678e-1,3.541167385e-1
1.407144446e1,-3.451795496e-2,-1.290676011e-2,-5.305821955e-1,5.318604515e-1
1.408137646e1,2.431958403e-2,-4.337310168e-2,-3.521532404e-1,3.556466967e-1
1.409130846e1,-4.503069139e-2,-1.732463303e-2,-5.329772151e-1,5.351566293e-1
1.410124046e1,-1.396074814e-2,-8.262408078e-2,-5.172598994e-1,5.240032869e-1
1.411117246e1,9.278970273e-2,-1.964677250e-2,-4.334312922e-1,4.436875135e-1
1.412110446e1,5.081846644e-2,-3.531838853e-2,-4.621721113e-1,4.662970786e-1
1.413103646e1,4.749575417e-2,-4.234316032e-3,-4.518400812e-1,4.543492435e-1
1.414096846e1,-2.065355340e-2,1.599616391e-2,-5.551258832e-1,5.557402206e-1
1.415090046e1,-9.224885356e-2,-2.006274708e-2,-5.647047919e-1,5.725415852e-1
1.416083246e1,-3.796853396e-2,-2.694032435e-2,-6.152972406e-1,6.170559820e-1
1.417076446e1,-4.987197581e-2,-1.546402160e-2,-4.974910480e-1,5.002236427e-1
1.418069746e1,8.072168003e-3,-1.689163757e-2,-5.941899616e-1,5.944848171e-1
1.419062946e1,-1.939830695e-2,-7.327657565e-4,-5.576659137e-1,5.580036761e-1
1.420056146e1,7.092060456e-3,2.130915418e-2,-5.420994562e-1,5.425644642e-1
1.421049346e1,4.029069627e-3,2.165467895e-2,-5.337186420e-1,5.341729564e-1
1.422042546e1,5.812224178e-2,-1.625653859e-2,-6.781694269e-1,6.808496469e-1
1.423035746e1,6.648768419e-2,-3.613624041e-2,-5.714431232e-1,5.764318547e-1
1.424028946e1,1.010487121e-1,-4.256776650e-2,-5.814722675e-1,5.917202505e-1
1.425022146e1,5.744250296e-2,-5.147072791e-2,-4.910573566e-1,4.970776644e-1
1.426015346e1,1.355008174e-2,-4.666795288e-2,-6.706803131e-1,6.724385362e-1
1.427008546e1,-5.171748041e-2,-3.057074178e-2,-5.925422162e-1,5.955800081e-1
1.428001746e1,-1.147507118e-1,-1.118089045e-2,-6.602038568e-1,6.701953974e-1
1.428995046e1,-5.885525422e-2,7.009141456e-2,-5.554229218e-1,5.629132876e-1
1.429988246e1,-2.206720458e-2,2.453866275e-2,-6.765193427e-1,6.773237988e-1
1.430981446e1,-3.344941741e-2,2.734045663e-2,-5.971837360e-1,5.987443349e-1
1.431974646e1,-3.385350112e-2,3.307212582e-3,-6.557114410e-1,6.565930940e-1
1.432967846e1,-7.551026685e-2,2.097255556e-2,-6.256251776e-1,6.305144815e-1
1.433961046e1,-3.715611359e-2,-5.896358759e-2,-7.739666998e-1,7.770982781e-1
1.434954246e1,1.174889081e-1,-8.845192753e-4,-6.331090289e-1,6.439188368e-1
1.435947446e1,1.063951137e-2,-1.459218347e-3,-6.516680914e-1,6.517565726e-1
1.436940646e1,1.174552501e-1,-3.819985986e-3,-7.377367669e-1,7.470380615e-1
1.437933846e1,2.394170315e-2,7.743102238e-3,-6.836979693e-1,6.841608539e-1
1.438927046e1,-4.481719036e-2,5.870245459e-2,-7.775522125e-1,7.810518561e-1
1.439920346e1,-9.959465576e-2,3.385334124e-2,-6.748657501e-1,6.830145861e-1
1.440913546e1,-7.338440197e-2,-1.572161886e-2,-8.465575433e-1,8.498777052e-1
1.441906746e1,-1.047788840e-2,1.687172963e-2,-6.805521673e-1,6.808419008e-1
1.442899946e1,2.910690276e-2,-5.918739891e-2,-7.407264483e-1,7.436572000e-1
1.443893146e1,9.332309214e-3,-1.212559951e-2,-7.206687444e-1,7.208311601e-1
1.444886346e1,2.732224803e-2,-1.050981465e-1,-8.046435320e-1,8.119380144e-1
1.445879546e1,3.179779826e-3,-5.026775465e-2,-7.556959051e-1,7.573726026e-1
1.446872746e1,-1.750355098e-2,-4.390577389e-2,-8.223108941e-1,8.236681965e-1
1.447865946e1,1.502448457e-2,-3.068753078e-2,-7.335460675e-1,7.343414007e-1
1.448859146e1,3.916663301e-2,-6.878220471e-2,-8.562902337e-1,8.599406847e-1
1.449852346e1,3.597016806e-2,-6.132746156e-2,-7.720166534e-1,7.752835763e-1
1.450845646e1,2.036825267e-2,-5.274226891e-2,-8.158760333e-1,8.178326934e-1
1.451838846e1,3.309627984e-2,-3.138765262e-2,-7.724668890e-1,7.738124082e-1
1.452832046e1,8.203157054e-3,-4.883013446e-2,-8.503021002e-1,8.517425288e-1
1.453825246e1,1.929386334e-2,-2.545028022e-2,-8.172226471e-1,8.178464555e-1
1.454818446e1,-7.856759319e-2,-4.183372166e-3,-8.606317914e-1,8.642207169e-1
1.455811646e1,-6.516334467e-2,-1.899021241e-2,-8.693149066e-1,8.719606049e-1
1.456804846e1,-3.335444584e-2,-2.213207670e-2,-8.776980597e-1,8.786103982e-1
1.457798046e1,-1.014586705e-2,-3.717349079e-2,-9.261948663e-1,9.269960827e-1
1.458791246e1,1.253545278e-2,-8.041063556e-3,-9.257458001e-1,9.258655857e-1
1.459784446e1,4.182451230e-2,2.027762312e-2,-9.064371246e-1,9.076280806e-1
1.460777746e1,4.932549869e-2,6.379482212e-2,-8.495565802e-1,8.533751620e-1
1.461770946e1,-6.818725965e-3,3.937412694e-2,-9.534405524e-1,9.542775821e-1
1.462764146e1,1.753003018e-2,1.843511065e-2,-9.565851849e-1,9.569233884e-1
1.463757346e1,4.379010409e-2,-3.841008553e-2,-9.675142157e-1,9.692660447e-1
1.464750546e1,4.380103564e-2,-2.142675631e-2,-9.726018780e-1,9.738234182e-1
1.465743746e1,5.557958462e-2,-4.847690782e-2,-9.351791131e-1,9.380826587e-1
1.466736946e1,2.538364023e-2,-3.362857975e-2,-8.866787982e-1,8.876792786e-1
1.467730146e1,-1.121782156e-2,-7.811023129e-2,-1.001490047e0,1.004594128e0
1.468723346e1,-3.808947311e-2,-3.273147983e-2,-9.131742865e-1,9.145542276e-1
1.469716546e1,-5.610001422e-2,-6.955747241e-3,-9.902639776e-1,9.918761714e-1
1.470709746e1,-5.704507502e-2,3.672865472e-2,-9.369759625e-1,9.394291293e-1
1.471703046e1,-1.010098190e-1,6.807721322e-3,-9.839788055e-1,9.891731994e-1
1.472696246e1,-3.126030666e-2,2.089833247e-2,-9.507484943e-1,9.514918005e-1
1.473689446e1,9.913723448e-3,2.043090239e-2,-9.272473651e-1,9.275254066e-1
1.474682646e1,5.519434447e-2,-2.330150155e-2,-9.639228559e-1,9.657829195e-1
1.475675846e1,9.897034672e-2,2.851028348e-2,-9.540422308e-1,9.595856106e-1
1.476669046e1,1.406408397e-3,-1.298329468e-2,-9.586819965e-1,9.587709394e-1
1.477662246e1,1.045929608e-2,-1.693525415e-2,-9.305381781e-1,9.307510411e-1
1.478655446e1,-8.476693000e-2,-5.374605311e-2,-1.009123002e0,1.014102216e0
1.479648646e1,-5.439038887e-2,-6.772495503e-2,-9.655629998e-1,9.694621656e-1
1.480641846e1,-2.605829471e-2,-3.177161369e-2,-8.878751385e-1,8.888254788e-1
1.481635046e1,-1.566217141e-2,3.088202379e-2,-9.588287616e-1,9.594538014e-1
1.482628346e1,-8.685401597e-3,1.240996605e-2,-9.383225763e-1,9.384448309e-1
1.483621546e1,2.383808409e-2,-3.082062802e-2,-9.103307855e-1,9.111642576e-1
1.484614746e1,9.526548693e-2,7.089867750e-3,-8.949116778e-1,8.999959391e-1
1.485607946e1,6.346942456e-2,3.981740071e-2,-8.742552191e-1,8.774599600e-1
1.486601146e1,1.857677772e-2,3.484263531e-2,-9.100302386e-1,9.108864590e-1
1.487594346e1,-4.598709944e-2,1.525110986e-2,-8.745540118e-1,8.758950447e-1
1.488587546e1,-1.241513033e-2,1.102330799e-2,-8.808409381e-1,8.809973933e-1
1.489580746e1,-4.391476398e-2,8.423188236e-3,-8.773975128e-1,8.785361985e-1
1.490573946e1,-1.601021093e-2,-2.641216546e-2,-8.893737799e-1,8.899099110e-1
1.491567146e1,-5.850230623e-3,-2.100697191e-2,-8.547980243e-1,8.550761255e-1
1.492560346e1,-3.975535627e-3,-6.635540008e-2,-8.522550702e-1,8.548435814e-1
1.493553646e1,4.167780657e-2,-3.061461417e-2,-8.549494672e-1,8.565120464e-1
1.494546846e1,2.856808184e-2,-3.500215466e-2,-8.522568244e-1,8.534535610e-1
1.495540046e1,3.623214617e-2,-7.250306211e-2,-8.504617292e-1,8.543152903e-1
1.496533246e1,1.790147913e-2,-4.751738886e-2,-8.877342206e-1,8.891852516e-1
1.497526446e1,-6.356261456e-3,-4.838263974e-2,-8.622853839e-1,8.636650770e-1
1.498519646e1,-3.894694672e-2,-1.058649357e-2,-8.315997809e-1,8.325786054e-1
1.499512846e1,-3.228796167e-2,-1.253804748e-2,-8.330966681e-1,8.338163908e-1
1.500506046e1,-3.875228012e-2,-2.167224800e-3,-8.947695905e-1,8.956109960e-1
1.501499246e1,-3.566362093e-2,5.422342345e-3,-8.622883075e-1,8.630425372e-1
1.502492446e1,-2.477774306e-2,-3.072435910e-2,-8.995602143e-1,9.004257337e-1
1.503485746e1,-1.401038552e-3,-6.787804244e-2,-8.633349591e-1,8.660003714e-1
1.504478946e1,-1.200168650e-2,-6.411451863e-2,-8.887820417e-1,8.911723905e-1
1.505472146e1,3.847339991e-2,-4.957389115e-2,-8.708176410e-1,8.730756766e-1
1.506465346e1,7.204152494e-2,-4.012899335e-2,-8.941679120e-1,8.979624559e-1
1.507458546e1,3.825560712e-2,1.961326065e-2,-8.720110577e-1,8.730701325e-1
1.508451746e1,2.052170326e-2,1.113746574e-2,-9.062909442e-1,9.065916716e-1
1.509444946e1,1.582064237e-2,2.263770553e-2,-8.711140949e-1,8.715517912e-1
1.510438146e1,-3.694873843e-3,1.427051352e-2,-8.946140546e-1,8.947354951e-1
1.511431346e1,-5.894868633e-2,-2.990421401e-3,-8.757544452e-1,8.777412708e-1
1.512424546e1,-1.251644704e-2,-1.936337440e-2,-9.178181452e-1,9.181077003e-1
1.513417746e1,8.191604235e-3,1.053704806e-2,-8.583934772e-1,8.584972297e-1
1.514411046e1,1.431445215e-2,-4.749757228e-3,-8.931218451e-1,8.932491780e-1
1.515404246e1,5.359923318e-2,-4.385503102e-4,-8.214203632e-1,8.231673482e-1
1.516397446e1,4.483181296e-2,-1.841662796e-2,-8.872834003e-1,8.886061535e-1
1.517390646e1,-7.550945829e-3,-8.677204074e-3,-8.651294696e-1,8.652059350e-1
1.518383846e1,4.041630634e-2,-1.199669581e-2,-9.148261249e-1,9.157970503e-1
1.519377046e1,-1.563235061e-2,2.290539837e-2,-8.333954608e-1,8.338567154e-1
1.520370246e1,-1.987260065e-2,6.928292736e-3,-9.110827374e-1,9.113257793e-1
1.521363446e1,-7.824397721e-2,-7.919021202e-3,-8.925201666e-1,8.959782803e-1
1.522356646e1,-3.540316630e-2,-4.503530977e-2,-8.729126984e-1,8.747903419e-1
1.523349846e1,-5.378034155e-2,-2.807896910e-2,-8.857865131e-1,8.878617575e-1
1.524343146e1,-1.341739106e-2,-3.450481243e-2,-9.049460846e-1,9.057030554e-1
1.525336346e1,3.086776206e-2,-4.587662361e-2,-8.925219208e-1,8.942331141e-1
1.526329546e1,2.749774901e-2,-5.268638232e-2,-9.083877558e-1,9.103297731e-1
1.527322746e1,1.959189318e-2,-4.618486323e-2,-9.299417621e-1,9.312940270e-1
1.528315946e1,9.157050345e-3,-4.212838478e-2,-9.040456134e-1,9.050729935e-1
1.529309146e1,2.432017788e-2,-2.971733152e-2,-8.995549518e-1,9.003742012e-1
1.530302346e1,-1.382502193e-2,-3.784840565e-2,-9.097349542e-1,9.106268830e-1
1.531295546e1,2.166667031e-2,-3.007781236e-2,-9.155728143e-1,9.163229222e-1
1.532288746e1,3.425113234e-2,-1.054341604e-2,-9.256007892e-1,9.262942970e-1
1.533281946e1,5.197890577e-2,-7.743760049e-3,-8.964109039e-1,8.979500438e-1
1.534275146e1,5.756108724e-2,-1.140892273e-2,-8.696160382e-1,8.715936531e-1
1.535268446e1,5.167054280e-3,1.726246982e-2,-9.167685699e-1,9.169456375e-1
1.536261646e1,6.293472410e-3,3.598540965e-2,-8.973096210e-1,8.980529569e-1
1.537254846e1,9.000801779e-3,3.112788093e-2,-8.552482599e-1,8.558618729e-1
1.538248046e1,1.590874346e-3,-1.512849192e-2,-9.131777948e-1,9.133044876e-1
1.539241246e1,-4.545999579e-2,-1.754750331e-2,-9.142273700e-1,9.155251008e-1
1.540234446e1,-4.024655893e-2,-1.642916850e-2,-8.853362775e-1,8.864028584e-1
1.541227646e1,-5.497796095e-2,-2.428018841e-2,-8.802468610e-1,8.822962314e-1
1.542220846e1,-2.517444239e-2,6.720250631e-3,-8.974616486e-1,8.978398103e-1
1.543214046e1,-2.259892433e-2,-2.533233091e-3,-8.754579914e-1,8.757532891e-1
1.544207246e1,2.643183358e-2,-5.260219155e-3,-9.148255402e-1,9.152224214e-1
1.545200546e1,1.250878628e-2,-3.529251460e-4,-8.672233576e-1,8.673136377e-1
1.546193746e1,4.056205275e-2,-1.909428371e-2,-9.167697394e-1,9.178652553e-1
1.547186946e1,1.034916742e-2,-5.002321313e-2,-8.693189996e-1,8.708185519e-1
1.548180146e1,-3.917338929e-2,-4.691903598e-2,-8.958121490e-1,8.978949586e-1
1.549173346e1,-3.563645879e-2,-4.327101295e-2,-8.944620270e-1,8.962168574e-1
1.550166546e1,-5.273278546e-2,-3.776544828e-2,-9.097296917e-1,9.120389727e-1
1.551159746e1,-1.633292241e-2,-3.998134201e-2,-8.916179413e-1,8.926633325e-1
1.552152946e1,-1.467726503e-2,-3.822553279e-3,-9.218544781e-1,9.219792367e-1
1.553146146e1,-3.197728037e-3,1.557270672e-2,-8.812888348e-1,8.814322124e-1
1.554139346e1,2.791125451e-2,-5.704324320e-4,-9.083824933e-1,9.088113762e-1
1.555132546e1,3.100521046e-2,-9.697735067e-3,-8.841352594e-1,8.847318950e-1
1.556125846e1,4.519890847e-2,1.666511279e-3,-8.781471258e-1,8.793111470e-1
1.557119046e1,6.872322549e-2,-8.519365797e-3,-8.675192267e-1,8.702787312e-1
1.558112246e1,1.467362194e-2,-1.960719416e-2,-8.937124139e-1,8.940478936e-1
1.559105446e1,2.853135173e-3,-2.884590453e-2,-9.008957183e-1,9.013619261e-1
1.560098646e1,5.635151302e-3,-8.300433252e-3,-8.730524468e-1,8.731100887e-1
1.561091821e1,-8.674764689e-3,2.114282831e-2,-8.699078143e-1,8.702079499e-1
1.562085021e1,-2.073565881e-2,3.210146975e-2,-8.570345843e-1,8.578862107e-1
1.563078221e1,-3.573117455e-2,9.092767518e-3,-8.513464129e-1,8.521444185e-1
1.564071421e1,-4.165873460e-2,-2.389318496e-2,-8.489519781e-1,8.503092353e-1
1.565064721e1,-4.761364865e-2,-4.595046298e-2,-8.444607317e-1,8.470492501e-1
1.566057921e1,-3.308649261e-2,-6.301995641e-2,-8.284440386e-1,8.314960950e-1
1.567051121e1,2.598054959e-3,-4.618542968e-2,-8.350291729e-1,8.363094902e-1
1.568044321e1,4.996312385e-2,-2.541643946e-2,-8.056901836e-1,8.076379023e-1
1.569037521e1,4.486624758e-2,-1.972744580e-2,-7.973058611e-1,7.988108590e-1
1.570030721e1,4.084442302e-2,2.822661130e-3,-7.714091277e-1,7.724948392e-1
1.571023921e1,1.184253260e-2,1.437127749e-2,-7.555427080e-1,7.557721633e-1
1.572017121e1,6.159265107e-3,9.982348289e-3,-7.709600616e-1,7.710492853e-1
1.573010321e1,-3.014966916e-2,2.323530011e-2,-7.500030559e-1,7.509683519e-1
1.574003521e1,-3.291500702e-2,2.943347661e-2,-7.558385772e-1,7.571272561e-1
1.574996821e1,-4.052178006e-2,5.796463648e-3,-7.320386553e-1,7.331822464e-1
1.575990021e1,-3.398194344e-2,-3.452596290e-2,-7.333870232e-1,7.349852654e-1
1.576983221e1,-2.996790298e-2,-5.794333982e-2,-7.037480718e-1,7.067650631e-1
1.577976421e1,-1.380029689e-3,-4.361161326e-2,-6.914735967e-1,6.928489101e-1
1.578969621e1,1.529995467e-2,-5.490682592e-2,-6.709662420e-1,6.733829119e-1
1.579962821e1,2.872515039e-2,-3.147979195e-2,-6.775537151e-1,6.788925898e-1
1.580956021e1,2.907294323e-2,-2.824888553e-2,-6.290557390e-1,6.303604988e-1
1.581949221e1,2.384102368e-2,-2.105202287e-2,-6.483655840e-1,6.491452169e-1
1.582942421e1,1.283905118e-2,-1.623749860e-2,-6.344451177e-1,6.347827227e-1
1.583935621e1,2.683853712e-3,-1.816700667e-2,-6.242662847e-1,6.245363380e-1
1.584928921e1,-3.406581444e-2,-1.046361068e-2,-6.398344964e-1,6.408261462e-1
1.585922121e1,-5.732162091e-2,-2.630898038e-2,-6.040588921e-1,6.073426346e-1
1.586915321e1,-3.969168557e-2,-2.042904773e-2,-6.098990911e-1,6.115306021e-1
1.587908521e1,-8.380688571e-3,-6.435628273e-3,-6.036127496e-1,6.037052300e-1
1.588901721e1,-1.937995217e-2,7.470731623e-4,-5.832574224e-1,5.835797816e-1
1.589894921e1,-2.559931798e-2,-9.071406908e-4,-5.754736090e-1,5.760434208e-1
